<?xml version="1.0" encoding="UTF-8"?>
<result xmlns="http://www.jenitennison.com/xslt/xspec" select="/element()">
   <content-wrap xmlns="">
      <Bundle xmlns="http://hl7.org/fhir">
         <id value="eICR-bundle-d1781e15"/>
         <meta>
            <profile value="http://hl7.org/fhir/us/ecr/StructureDefinition/eicr-document-bundle"/>
         </meta>
         <identifier>
            <system value="urn:ietf:rfc:3986"/>
            <value value="urn:uuid:2.16.840.1.113883.9.9.9.9.9"/>
         </identifier>
         <type value="document"/>
         <timestamp value="2020-11-07T09:44:21.000-05:00"/>
         <entry>
            <fullUrl value="urn:uuid:fd29b758-5964-4af0-90b2-1195a2ad291a"/>
            <resource>
               <Composition>
                  <meta>
                     <profile value="http://hl7.org/fhir/us/ecr/StructureDefinition/eicr-composition"/>
                     <!--CDA templateId: urn:hl7ii:2.16.840.1.113883.10.20.15.2:2021-01-01-->
                  </meta>
                  <language value="en-US"/>
                  <text>
                     <status value="generated"/>
                     <div xmlns="http://www.w3.org/1999/xhtml" lang="en-US">
                        <table class="header_table"
                               style="border: 1pt inset #00008b; line-height: 10pt; width: 100%;">
                           <tbody>
                              <tr>
                                 <td class="td_header_role_name"
                                     style="width: 20%; background-color: #3399ff; padding: 0.1cm 0.2cm; vertical-align: top; background-color: #ffffcc;">
                                    <span class="td_label">Document Id</span>
                                 </td>
                                 <td class="td_header_role_value">db734647-fc99-424c-a864-7e3cda82e704 2.16.840.1.113883.9.9.9.9.9</td>
                              </tr>
                              <tr>
                                 <td class="td_header_role_name"
                                     style="width: 20%; background-color: #3399ff; padding: 0.1cm 0.2cm; vertical-align: top; background-color: #ffffcc;">
                                    <span class="td_label">Document Created:</span>
                                 </td>
                                 <td class="td_header_role_value">November 7, 2020, 09:44:21, EST </td>
                              </tr>
                           </tbody>
                        </table>
                        <table class="header_table"
                               style="border: 1pt inset #00008b; line-height: 10pt; width: 100%;">
                           <tbody><!--Author-->
                              <tr>
                                 <td class="td_header_role_name"
                                     style="width: 20%; background-color: #3399ff; padding: 0.1cm 0.2cm; vertical-align: top; background-color: #ffffcc;">
                                    <span class="td_label">Author</span>
                                 </td>
                                 <td class="td_header_role_value"/>
                              </tr>
                              <tr>
                                 <td class="td_header_role_name"
                                     style="width: 20%; background-color: #3399ff; padding: 0.1cm 0.2cm; vertical-align: top; background-color: #ffffcc;">
                                    <span class="td_label">Contact info</span>
                                 </td>
                                 <td class="td_header_role_value">1002 Healthcare Drive<br/>Ann Arbor, MI 99999, US<br/>Tel (Work Place):  +1-(555)555-1212;ext=9998<br/>
                                 </td>
                              </tr>
                              <tr>
                                 <td class="td_header_role_name"
                                     style="width: 20%; background-color: #3399ff; padding: 0.1cm 0.2cm; vertical-align: top; background-color: #ffffcc;">
                                    <span class="td_label">Author</span>
                                 </td>
                                 <td class="td_header_role_value">Registered Pharmacist, RPh, The Pharmacy Alliance Health Group</td>
                              </tr>
                              <tr>
                                 <td class="td_header_role_name"
                                     style="width: 20%; background-color: #3399ff; padding: 0.1cm 0.2cm; vertical-align: top; background-color: #ffffcc;">
                                    <span class="td_label">Contact info</span>
                                 </td>
                                 <td class="td_header_role_value">1004 Pharmacy Drive<br/>Portland, OR 99123, US<br/>Tel (Work Place):  +1(555)555-1004<br/>
                                 </td>
                              </tr>
                           </tbody>
                        </table>
                        <table class="header_table"
                               style="border: 1pt inset #00008b; line-height: 10pt; width: 100%;">
                           <tbody><!--encompassingEncounter-->
                              <tr>
                                 <td class="td_header_role_name"
                                     style="width: 20%; background-color: #3399ff; padding: 0.1cm 0.2cm; vertical-align: top; background-color: #ffffcc;">
                                    <span class="td_label">Encounter Id</span>
                                 </td>
                                 <td class="td_header_role_value">9937012 2.16.840.1.113883.19</td>
                              </tr>
                              <tr>
                                 <td class="td_header_role_name"
                                     style="width: 20%; background-color: #3399ff; padding: 0.1cm 0.2cm; vertical-align: top; background-color: #ffffcc;">
                                    <span class="td_label">Encounter Type</span>
                                 </td>
                                 <td class="td_header_role_value">Ambulatory</td>
                              </tr>
                              <tr>
                                 <td class="td_header_role_name"
                                     style="width: 20%; background-color: #3399ff; padding: 0.1cm 0.2cm; vertical-align: top; background-color: #ffffcc;">
                                    <span class="td_label">Encounter Date</span>
                                 </td>
                                 <td class="td_header_role_value"> From November 7, 2020 </td>
                              </tr>
                              <tr>
                                 <td class="td_header_role_name"
                                     style="width: 20%; background-color: #3399ff; padding: 0.1cm 0.2cm; vertical-align: top; background-color: #ffffcc;">
                                    <span class="td_label">Encounter Location</span>
                                 </td>
                                 <td class="td_header_role_value">Outpatient facility</td>
                              </tr>
                              <tr>
                                 <td class="td_header_role_name"
                                     style="width: 20%; background-color: #3399ff; padding: 0.1cm 0.2cm; vertical-align: top; background-color: #ffffcc;">
                                    <span class="td_label">Responsible party</span>
                                 </td>
                                 <td class="td_header_role_value">Henry Seven, M.D. of Community Health and Hospitals</td>
                              </tr>
                              <tr>
                                 <td class="td_header_role_name"
                                     style="width: 20%; background-color: #3399ff; padding: 0.1cm 0.2cm; vertical-align: top; background-color: #ffffcc;">
                                    <span class="td_label">Contact info</span>
                                 </td>
                                 <td class="td_header_role_value">1002 Healthcare Drive<br/>Ann Arbor, MI 99999, US<br/>Tel (Work Place):  +1(555)555-1003<br/>Fax (Work Place):  +1(555)555-1234<br/>Mail (Work Place):  mail@provider_domain.com<br/>
                                 </td>
                              </tr>
                           </tbody>
                        </table>
                        <table class="header_table"
                               style="border: 1pt inset #00008b; line-height: 10pt; width: 100%;">
                           <tbody>
                              <tr>
                                 <td class="td_header_role_name"
                                     style="width: 20%; background-color: #3399ff; padding: 0.1cm 0.2cm; vertical-align: top; background-color: #ffffcc;">
                                    <span class="td_label">Document maintained by</span>
                                 </td>
                                 <td class="td_header_role_value">Good Health Hospital</td>
                              </tr>
                              <tr>
                                 <td class="td_header_role_name"
                                     style="width: 20%; background-color: #3399ff; padding: 0.1cm 0.2cm; vertical-align: top; background-color: #ffffcc;">
                                    <span class="td_label">Contact info</span>
                                 </td>
                                 <td class="td_header_role_value">1000 Hospital Lane<br/>Ann Arbor, MI 99999, US<br/>Tel (Work Place):  +1(555)555-1212<br/>
                                 </td>
                              </tr>
                           </tbody>
                        </table>
                     </div>
                  </text>
                  <extension url="http://hl7.org/fhir/StructureDefinition/composition-clinicaldocument-versionNumber">
                     <valueString value="2"/>
                  </extension>
                  <identifier>
                     <system value="urn:ietf:rfc:3986"/>
                     <value value="urn:uuid:2.16.840.1.113883.3.117.1.1.5.2.1.1.1"/>
                  </identifier>
                  <status value="final"/>
                  <type>
                     <coding>
                        <system value="http://loinc.org"/>
                        <code value="55751-2"/>
                        <display value="Public Health Case Report"/>
                     </coding>
                  </type>
                  <subject>
                     <reference value="urn:uuid:69eb049b-1361-4348-906c-de1abbe21a53"/>
                  </subject>
                  <encounter>
                     <reference value="urn:uuid:b52e8713-1a85-46b1-9802-25b93ddad5cc"/>
                  </encounter>
                  <date value="2020-11-07T09:44:21.000-05:00"/>
                  <author>
                     <reference value="urn:uuid:1da65424-3533-495e-9146-da85dde97e4c"/>
                  </author>
                  <author>
                     <reference value="urn:uuid:3854d680-2e72-4750-9a54-2424709d7cdc"/>
                  </author>
                  <title value="Initial Public Health Case Report: eICR-CDA-001_R3"/>
                  <confidentiality value="N"/>
                  <custodian>
                     <reference value="urn:uuid:9a424bbf-0162-4d73-8a7b-58af453741cd"/>
                  </custodian>
                  <relatesTo>
                     <code value="transforms"/>
                     <targetIdentifier>
                        <system value="urn:oid:2.16.840.1.113883.9.9.9.9.9"/>
                        <value value="db734647-fc99-424c-a864-7e3cda82e704"/>
                     </targetIdentifier>
                  </relatesTo>
                  <section>
                     <title value="Plan of Treatment"/>
                     <code>
                        <coding>
                           <system value="http://loinc.org"/>
                           <code value="18776-5"/>
                           <display value="Plan of Treatment"/>
                        </coding>
                     </code>
                     <text>
                        <status value="generated"/>
                        <div xmlns="http://www.w3.org/1999/xhtml">
                           <table>
                              <thead>
                                 <tr>
                                    <th>Order</th>
                                    <th>Trigger Code</th>
                                    <th>Trigger Code Code System</th>
                                    <th>RCTC OID</th>
                                    <th>RCTC Version</th>
                                    <th>Planned Date</th>
                                 </tr>
                              </thead>
                              <tbody>
                                 <tr>
                                    <td>Bacillus anthracis strain V770-NP1-R antigens 0.1 MG/ML Injectable</td>
                                    <td>832679</td>
                                    <td>RxNorm</td>
                                    <td>2.16.840.1.114222.4.11.7508</td>
                                    <td>2020-11-13</td>
                                    <td>NOV 8, 2020</td>
                                 </tr>
                                 <tr>
                                    <td>Zika virus envelope (E) gene [Presence] in Serum<br/>by Probe and target amplification method</td>
                                    <td>80825-3</td>
                                    <td>LOINC</td>
                                    <td>2.16.840.1.114222.4.11.7508</td>
                                    <td>2020-11-13</td>
                                    <td>NOV 8, 2020</td>
                                 </tr>
                                 <tr>
                                    <td>Extracorporeal membrane oxygenation (procedure)</td>
                                    <td>233573008</td>
                                    <td>SNOMED CT</td>
                                    <td>2.16.840.1.114222.4.11.7508</td>
                                    <td>2020-11-13</td>
                                    <td>NOV 8, 2020</td>
                                 </tr>
                                 <tr>
                                    <td>Airborne precautions (procedure)</td>
                                    <td>409524006</td>
                                    <td>SNOMED CT</td>
                                    <td>2.16.840.1.114222.4.11.7508</td>
                                    <td>2020-11-13</td>
                                    <td>NOV 8, 2020</td>
                                 </tr>
                                 <tr>
                                    <td>Ventilator care and adjustment (regime/therapy)</td>
                                    <td>385857005</td>
                                    <td>SNOMED CT</td>
                                    <td>2.16.840.1.114222.4.11.7508</td>
                                    <td>2020-11-13</td>
                                    <td>NOV 8, 2020</td>
                                 </tr>
                                 <tr>
                                    <td>Radiographic imaging procedure (procedure)</td>
                                    <td>363680008</td>
                                    <td>SNOMED CT</td>
                                    <td/>
                                    <td/>
                                    <td>NOV 8, 2020</td>
                                 </tr>
                              </tbody>
                           </table>
                        </div>
                     </text>
                     <!--2.16.840.1.113883.10.20.22.4.42:2014-06-09-->
                     <entry>
                        <extension url="http://hl7.org/fhir/us/ecr/StructureDefinition/eicr-trigger-code-flag-extension">
                           <extension url="triggerCodeValueSet">
                              <valueOid value="urn:oid:2.16.840.1.114222.4.11.7508"/>
                           </extension>
                           <extension url="triggerCodeValueSetVersion">
                              <valueString value="2020-11-13"/>
                           </extension>
                           <extension url="triggerCode">
                              <valueCoding>
                                 <system value="http://www.nlm.nih.gov/research/umls/rxnorm"/>
                                 <code value="832679"/>
                                 <display value="Bacillus anthracis strain V770-NP1-R antigens 0.1 MG/ML Injectable"/>
                              </valueCoding>
                           </extension>
                        </extension>
                        <reference value="urn:uuid:c3e209db-2cb9-4144-aefa-5925a56e7589"/>
                     </entry>
                     <!--2.16.840.1.113883.10.20.22.4.44-->
                     <!--2.16.840.1.113883.10.20.22.4.44:2014-06-09-->
                     <!--2.16.840.1.113883.10.20.15.2.3.4:2019-04-01-->
                     <entry>
                        <extension url="http://hl7.org/fhir/us/ecr/StructureDefinition/eicr-trigger-code-flag-extension">
                           <extension url="triggerCodeValueSet">
                              <valueOid value="urn:oid:2.16.840.1.114222.4.11.7508"/>
                           </extension>
                           <extension url="triggerCodeValueSetVersion">
                              <valueString value="2020-11-13"/>
                           </extension>
                           <extension url="triggerCode">
                              <valueCoding>
                                 <system value="http://loinc.org"/>
                                 <code value="80825-3"/>
                                 <display value="Zika virus envelope (E) gene [Presence] in Serum by Probe and target amplification method"/>
                              </valueCoding>
                           </extension>
                        </extension>
                        <reference value="urn:uuid:62693f4b-9eea-4f85-97a9-aa3f0d4f1b27"/>
                     </entry>
                     <!--2.16.840.1.113883.10.20.22.4.41:2014-06-09-->
                     <!--2.16.840.1.113883.10.20.15.2.3.42:2021-01-01-->
                     <entry>
                        <extension url="http://hl7.org/fhir/us/ecr/StructureDefinition/eicr-trigger-code-flag-extension">
                           <extension url="triggerCodeValueSet">
                              <valueOid value="urn:oid:2.16.840.1.114222.4.11.7508"/>
                           </extension>
                           <extension url="triggerCodeValueSetVersion">
                              <valueString value="2020-11-13"/>
                           </extension>
                           <extension url="triggerCode">
                              <valueCoding>
                                 <system value="http://snomed.info/sct"/>
                                 <code value="233573008"/>
                                 <display value="Extracorporeal membrane oxygenation (procedure)"/>
                              </valueCoding>
                           </extension>
                        </extension>
                        <reference value="urn:uuid:27f3aad8-3a16-4e53-9d15-8163ed91fe7d"/>
                     </entry>
                     <!--2.16.840.1.113883.10.20.22.4.39:2014-06-09-->
                     <!--2.16.840.1.113883.10.20.15.2.3.41:2021-01-01-->
                     <entry>
                        <extension url="http://hl7.org/fhir/us/ecr/StructureDefinition/eicr-trigger-code-flag-extension">
                           <extension url="triggerCodeValueSet">
                              <valueOid value="urn:oid:2.16.840.1.114222.4.11.7508"/>
                           </extension>
                           <extension url="triggerCodeValueSetVersion">
                              <valueString value="2020-11-13"/>
                           </extension>
                           <extension url="triggerCode">
                              <valueCoding>
                                 <system value="http://snomed.info/sct"/>
                                 <code value="409524006"/>
                                 <display value="Airborne precautions (procedure)"/>
                              </valueCoding>
                           </extension>
                        </extension>
                        <reference value="urn:uuid:4982aab1-a22a-4a73-92ba-6810d16a3e37"/>
                     </entry>
                     <!--2.16.840.1.113883.10.20.22.4.44:2014-06-09-->
                     <!--2.16.840.1.113883.10.20.15.2.3.43:2021-01-01-->
                     <entry>
                        <extension url="http://hl7.org/fhir/us/ecr/StructureDefinition/eicr-trigger-code-flag-extension">
                           <extension url="triggerCodeValueSet">
                              <valueOid value="urn:oid:2.16.840.1.114222.4.11.7508"/>
                           </extension>
                           <extension url="triggerCodeValueSetVersion">
                              <valueString value="2020-11-13"/>
                           </extension>
                           <extension url="triggerCode">
                              <valueCoding>
                                 <system value="http://snomed.info/sct"/>
                                 <code value="385857005"/>
                                 <display value="Ventilator care and adjustment (regime/therapy)"/>
                              </valueCoding>
                           </extension>
                        </extension>
                        <reference value="urn:uuid:bdb2bd05-bcf2-44b3-a0c0-73086fdca8ce"/>
                     </entry>
                     <!--2.16.840.1.113883.10.20.22.4.44:2014-06-09-->
                     <entry>
                        <reference value="urn:uuid:5d8156ef-9a7d-422f-937e-bd3e451ba6d6"/>
                     </entry>
                  </section>
                  <section>
                     <title value="History of Present Illness"/>
                     <code>
                        <coding>
                           <system value="http://loinc.org"/>
                           <code value="10164-2"/>
                           <display value="HISTORY OF PRESENT ILLNESS"/>
                        </coding>
                     </code>
                     <text>
                        <status value="generated"/>
                        <div xmlns="http://www.w3.org/1999/xhtml">
                           <p> Persistent Cough REPORTED starting on 2020/10/05<br/> Whooping Respiration not reported<br/> Paroxysms Of Coughing REPORTED starting on 2020/11/04<br/> Post-tussive vomiting not
                            reported<br/>
                           </p>
                        </div>
                     </text>
                  </section>
                  <section>
                     <title value="Medications Administered"/>
                     <code>
                        <coding>
                           <system value="http://loinc.org"/>
                           <code value="29549-3"/>
                           <display value="Medications Administered"/>
                        </coding>
                     </code>
                     <text>
                        <status value="generated"/>
                        <div xmlns="http://www.w3.org/1999/xhtml">
                           <table>
                              <thead>
                                 <tr>
                                    <th>Medication</th>
                                    <th>Dose</th>
                                    <th>Duration</th>
                                    <th>Route</th>
                                 </tr>
                              </thead>
                              <tbody>
                                 <tr>
                                    <td>Azithromycin 500 MG Oral Tablet</td>
                                    <td>1 g</td>
                                    <td>NOV 7, 2020 11:60</td>
                                    <td>ORAL</td>
                                 </tr>
                              </tbody>
                           </table>
                        </div>
                     </text>
                     <!--2.16.840.1.113883.10.20.22.4.16-->
                     <!--2.16.840.1.113883.10.20.22.4.16:2014-06-09-->
                     <entry>
                        <extension url="http://hl7.org/fhir/us/ecr/StructureDefinition/eicr-trigger-code-flag-extension">
                           <extension url="triggerCodeValueSet">
                              <valueOid value="urn:oid:2.16.840.1.114222.4.11.7508"/>
                           </extension>
                           <extension url="triggerCodeValueSetVersion">
                              <valueString value="2020-11-13"/>
                           </extension>
                           <extension url="triggerCode">
                              <valueCoding>
                                 <system value="http://www.nlm.nih.gov/research/umls/rxnorm"/>
                                 <code value="248656"/>
                                 <display value="Azithromycin 500 MG Oral Tablet"/>
                              </valueCoding>
                           </extension>
                        </extension>
                        <reference value="urn:uuid:e2aea484-e178-4cac-9703-d7fc121653b7"/>
                     </entry>
                  </section>
                  <section>
                     <title value="Problems"/>
                     <code>
                        <coding>
                           <system value="http://loinc.org"/>
                           <code value="11450-4"/>
                           <display value="Problem List"/>
                        </coding>
                     </code>
                     <text>
                        <status value="generated"/>
                        <div xmlns="http://www.w3.org/1999/xhtml">
                           <table>
                              <thead>
                                 <tr>
                                    <th>Concern</th>
                                    <th>Concern Status</th>
                                    <th>Date(s)</th>
                                 </tr>
                              </thead>
                              <tbody>
                                 <tr>
                                    <td>Problem</td>
                                    <td>active</td>
                                    <td>NOV 7, 2020</td>
                                 </tr>
                                 <tr>
                                    <td>
                                       <ul>
                                          <li>
                                             <table>
                                                <thead>
                                                   <tr>
                                                      <th>Problem Type</th>
                                                      <th>Problem</th>
                                                      <th>Date(s)</th>
                                                   </tr>
                                                </thead>
                                                <tbody>
                                                   <tr>
                                                      <td>Symptom</td>
                                                      <td>Dark stools (finding)</td>
                                                      <td>NOV 1, 2020</td>
                                                   </tr>
                                                   <tr>
                                                      <td>Complaint</td>
                                                      <td>Paroxysmal cough (finding)</td>
                                                      <td>NOV 4, 2020</td>
                                                   </tr>
                                                </tbody>
                                             </table>
                                          </li>
                                       </ul>
                                    </td>
                                 </tr>
                              </tbody>
                           </table>
                           <table>
                              <thead>
                                 <tr>
                                    <th>Concern</th>
                                    <th>Concern Status</th>
                                    <th>Date(s)</th>
                                 </tr>
                              </thead>
                              <tbody>
                                 <tr>
                                    <td>Problem</td>
                                    <td>active</td>
                                    <td>MAY 23, 2020</td>
                                 </tr>
                              </tbody>
                           </table>
                        </div>
                     </text>
                     <!--2.16.840.1.113883.10.20.22.4.4-->
                     <!--2.16.840.1.113883.10.20.22.4.4:2015-08-01-->
                     <entry>
                        <reference value="urn:uuid:bc2fd79f-c00d-448b-aee4-c6a16b103dc8"/>
                     </entry>
                     <!--2.16.840.1.113883.10.20.22.4.4-->
                     <!--2.16.840.1.113883.10.20.22.4.4:2015-08-01-->
                     <entry>
                        <reference value="urn:uuid:fa8e7fe7-8328-4d32-9da9-e5318a2d0824"/>
                     </entry>
                     <!--2.16.840.1.113883.10.20.22.4.4-->
                     <!--2.16.840.1.113883.10.20.22.4.4:2015-08-01-->
                     <entry>
                        <reference value="urn:uuid:8dbe8a82-c759-4c30-8c23-45b0220b39f9"/>
                     </entry>
                     <!--2.16.840.1.113883.10.20.22.4.4-->
                     <!--2.16.840.1.113883.10.20.22.4.4:2015-08-01-->
                     <entry>
                        <reference value="urn:uuid:21125d7f-4afa-40ab-8567-9391a12f55d5"/>
                     </entry>
                  </section>
                  <section>
                     <title value="Chief Complaint"/>
                     <code>
                        <coding>
                           <system value="http://loinc.org"/>
                           <code value="10154-3"/>
                           <display value="Chief complaint Narrative - Reported"/>
                        </coding>
                     </code>
                     <text>
                        <status value="generated"/>
                        <div xmlns="http://www.w3.org/1999/xhtml">
                           <p>Chief Complaint (the patient's own description): Headache and rash</p>
                        </div>
                     </text>
                  </section>
                  <section>
                     <title value="Reason for Visit"/>
                     <code>
                        <coding>
                           <system value="http://loinc.org"/>
                           <code value="29299-5"/>
                           <display value="Reason for visit Narrative"/>
                        </coding>
                     </code>
                     <text>
                        <status value="generated"/>
                        <div xmlns="http://www.w3.org/1999/xhtml">
                           <p>Reason for Visit (as documented by provider): Headache, rash, and fever</p>
                        </div>
                     </text>
                  </section>
                  <section>
                     <title value="Results"/>
                     <code>
                        <coding>
                           <system value="http://loinc.org"/>
                           <code value="30954-2"/>
                           <display value="Relevant diagnostic tests and/or laboratory data"/>
                        </coding>
                     </code>
                     <text>
                        <status value="generated"/>
                        <div xmlns="http://www.w3.org/1999/xhtml">
                           <table>
                              <thead>
                                 <tr>
                                    <th>Results Panel</th>
                                    <th>Date(s)</th>
                                 </tr>
                              </thead>
                              <tbody>
                                 <tr>
                                    <td>CBC W Auto Differential panel in Blood</td>
                                    <td>NOV 7, 2020 to NOV 7, 2020</td>
                                 </tr>
                                 <tr>
                                    <td>
                                       <ul>
                                          <li>
                                             <table>
                                                <thead>
                                                   <tr>
                                                      <th>Test</th>
                                                      <th>Outcome</th>
                                                      <th>Interpretation</th>
                                                      <th>Date(s)</th>
                                                      <th>Reference Range</th>
                                                      <th>Reference Range Interpretation</th>
                                                      <th>Reference Range Description</th>
                                                   </tr>
                                                </thead>
                                                <tbody>
                                                   <tr>
                                                      <td>Hematocrit</td>
                                                      <td>35.3 %</td>
                                                      <td>Low</td>
                                                      <td>NOV 7, 2020</td>
                                                      <td>34.9 % to 44.5 %</td>
                                                      <td>Low</td>
                                                      <td>Low</td>
                                                   </tr>
                                                   <tr>
                                                      <td>Lymphocytes [#/​volume] in Blood by Automated count</td>
                                                      <td>5.2 10*3/uL</td>
                                                      <td>High</td>
                                                      <td>NOV 7, 2020</td>
                                                      <td>1.0 10*3/uL to 4.8 10*3/uL</td>
                                                      <td>Normal</td>
                                                      <td/>
                                                   </tr>
                                                </tbody>
                                             </table>
                                          </li>
                                       </ul>
                                    </td>
                                 </tr>
                              </tbody>
                           </table>
                           <table>
                              <thead>
                                 <tr>
                                    <th>Results Panel</th>
                                    <th>Date(s)</th>
                                 </tr>
                              </thead>
                              <tbody>
                                 <tr>
                                    <td>Bordetella pertussis Ab<br/>[Units/volume] in Serum</td>
                                    <td>NOV 7, 2020 to NOV 7, 2020</td>
                                 </tr>
                                 <tr>
                                    <td>
                                       <ul>
                                          <li>
                                             <table>
                                                <thead>
                                                   <tr>
                                                      <th>Initial Case Report Trigger<br/>Code Result Observation </th>
                                                      <th>Trigger Code</th>
                                                      <th>Trigger Code codeSystem</th>
                                                      <th>RCTC OID</th>
                                                      <th>RCTC Version</th>
                                                      <th>Outcome</th>
                                                      <th>Interpretation</th>
                                                      <th>Date(s)</th>
                                                      <th>Reference Range</th>
                                                      <th>Reference Range Interpretation</th>
                                                   </tr>
                                                </thead>
                                                <tbody>
                                                   <tr>
                                                      <td>Bordetella pertussis Ab<br/>[Units/volume] in Serum</td>
                                                      <td>11585-7</td>
                                                      <td>LOINC</td>
                                                      <td>2.16.840.1.114222.4.11.7508</td>
                                                      <td>19/05/2020</td>
                                                      <td>100 [iU]/mL</td>
                                                      <td>High</td>
                                                      <td>NOV 7, 2020</td>
                                                      <td> to 45 [iU]/mL</td>
                                                      <td>Normal</td>
                                                   </tr>
                                                </tbody>
                                             </table>
                                          </li>
                                       </ul>
                                    </td>
                                 </tr>
                              </tbody>
                           </table>
                           <table>
                              <thead>
                                 <tr>
                                    <th>Results Panel</th>
                                    <th>Date(s)</th>
                                 </tr>
                              </thead>
                              <tbody>
                                 <tr>
                                    <td>Bordetella pertussis [Presence]<br/>in Throat by Organism specific culture</td>
                                    <td>NOV 7, 2020 to NOV 7, 2020</td>
                                 </tr>
                                 <tr>
                                    <td>
                                       <ul>
                                          <li>
                                             <table>
                                                <thead>
                                                   <tr>
                                                      <th>Initial Case Report Trigger Code Result Observation </th>
                                                      <th>Trigger Code</th>
                                                      <th>Trigger Code codeSystem</th>
                                                      <th>RCTC OID</th>
                                                      <th>RCTC Version</th>
                                                      <th>Outcome</th>
                                                      <th>Trigger Code</th>
                                                      <th>Trigger Code codeSystem</th>
                                                      <th>RCTC OID</th>
                                                      <th>RCTC Version</th>
                                                      <th>Interpretation</th>
                                                      <th>Date(s)</th>
                                                   </tr>
                                                </thead>
                                                <tbody>
                                                   <tr>
                                                      <td>Bordetella pertussis [Presence]<br/>in Throat by Organism specific culture</td>
                                                      <td>548-8</td>
                                                      <td>LOINC</td>
                                                      <td>2.16.840.1.114222.4.11.7508</td>
                                                      <td>19/05/2020</td>
                                                      <td>Bordetella pertussis (organism)</td>
                                                      <td>5247005</td>
                                                      <td>SNOMED CT</td>
                                                      <td>2.16.840.1.114222.4.11.7508</td>
                                                      <td>19/05/2020</td>
                                                      <td>Abnormal</td>
                                                      <td>NOV 7, 2020</td>
                                                   </tr>
                                                </tbody>
                                             </table>
                                          </li>
                                       </ul>
                                    </td>
                                 </tr>
                              </tbody>
                           </table>
                        </div>
                     </text>
                     <!--2.16.840.1.113883.10.20.22.4.1-->
                     <!--2.16.840.1.113883.10.20.22.4.1:2015-08-01-->
                     <!--2.16.840.1.113883.10.20.15.2.3.35:2019-04-01-->
                     <entry>
                        <extension url="http://hl7.org/fhir/us/ecr/StructureDefinition/eicr-trigger-code-flag-extension">
                           <extension url="triggerCodeValueSet">
                              <valueOid value="urn:oid:2.16.840.1.114222.4.11.7508"/>
                           </extension>
                           <extension url="triggerCodeValueSetVersion">
                              <valueString value="2020-11-13"/>
                           </extension>
                           <extension url="triggerCode">
                              <valueCoding>
                                 <system value="http://loinc.org"/>
                                 <code value="57021-8"/>
                                 <display value="CBC W Auto Differential panel in Blood"/>
                              </valueCoding>
                           </extension>
                        </extension>
                        <reference value="urn:uuid:1dd0079e-4ae1-4edf-9abc-d80099b931a8"/>
                     </entry>
                     <!--2.16.840.1.113883.10.20.22.4.1-->
                     <!--2.16.840.1.113883.10.20.22.4.1:2015-08-01-->
                     <entry>
                        <extension url="http://hl7.org/fhir/us/ecr/StructureDefinition/eicr-trigger-code-flag-extension">
                           <extension url="triggerCodeValueSet">
                              <valueOid value="urn:oid:2.16.840.1.114222.4.11.7508"/>
                           </extension>
                           <extension url="triggerCodeValueSetVersion">
                              <valueString value="2020-11-13"/>
                           </extension>
                           <extension url="triggerCode">
                              <valueCoding>
                                 <system value="http://loinc.org"/>
                                 <code value="11585-7"/>
                                 <display value="Bordetella pertussis Ab [Units/volume] in Serum"/>
                              </valueCoding>
                           </extension>
                        </extension>
                        <reference value="urn:uuid:0f73f037-df01-4f8b-acdb-67524f070448"/>
                     </entry>
                     <!--2.16.840.1.113883.10.20.22.4.1-->
                     <!--2.16.840.1.113883.10.20.22.4.1:2015-08-01-->
                     <entry>
                        <extension url="http://hl7.org/fhir/us/ecr/StructureDefinition/eicr-trigger-code-flag-extension">
                           <extension url="triggerCodeValueSet">
                              <valueOid value="urn:oid:2.16.840.1.114222.4.11.7508"/>
                           </extension>
                           <extension url="triggerCodeValueSetVersion">
                              <valueString value="2020-11-13"/>
                           </extension>
                           <extension url="triggerCode">
                              <valueCoding>
                                 <system value="http://loinc.org"/>
                                 <code value="548-8"/>
                                 <display value="Bordetella pertussis [Presence] in Throat by Organism specific culture"/>
                              </valueCoding>
                           </extension>
                        </extension>
                        <extension url="http://hl7.org/fhir/us/ecr/StructureDefinition/eicr-trigger-code-flag-extension">
                           <extension url="triggerCodeValueSet">
                              <valueOid value="urn:oid:2.16.840.1.114222.4.11.7508"/>
                           </extension>
                           <extension url="triggerCodeValueSetVersion">
                              <valueString value="2020-11-13"/>
                           </extension>
                           <extension url="triggerCode">
                              <valueCoding>
                                 <system value="http://snomed.info/sct"/>
                                 <code value="5247005"/>
                                 <display value="Bordetella pertussis (organism)"/>
                              </valueCoding>
                           </extension>
                        </extension>
                        <reference value="urn:uuid:9a754825-fe81-485f-9d7a-6945ce93996a"/>
                     </entry>
                  </section>
                  <section>
                     <title value="Procedures"/>
                     <code>
                        <coding>
                           <system value="http://loinc.org"/>
                           <code value="47519-4"/>
                           <display value="History of Procedures"/>
                        </coding>
                     </code>
                     <text>
                        <status value="additional"/>
                        <div xmlns="http://www.w3.org/1999/xhtml">
                           <table border="1" width="100%">
                              <thead>
                                 <tr>
                                    <th>Procedure</th>
                                    <th>Date</th>
                                 </tr>
                              </thead>
                              <tbody>
                                 <tr>
                                    <td>Colonic polypectomy</td>
                                    <td>November 15, 2020</td>
                                 </tr>
                              </tbody>
                           </table>
                        </div>
                     </text>
                     <!--2.16.840.1.113883.10.20.22.4.14:2014-06-09-->
                     <!--2.16.840.1.113883.10.20.22.4.14-->
                     <entry>
                        <reference value="urn:uuid:25c070b7-52c1-4a27-bfe5-00d1de9bd4ea"/>
                     </entry>
                     <!--2.16.840.1.113883.10.20.22.4.13:2014-06-09-->
                     <!--2.16.840.1.113883.10.20.22.4.13-->
                     <entry>
                        <reference value="urn:uuid:d4431526-d8b7-4a99-9050-05250e54c34a"/>
                     </entry>
                     <!--2.16.840.1.113883.10.20.22.4.14:2014-06-09-->
                     <!--2.16.840.1.113883.10.20.15.2.3.44:2021-01-01-->
                     <entry>
                        <extension url="http://hl7.org/fhir/us/ecr/StructureDefinition/eicr-trigger-code-flag-extension">
                           <extension url="triggerCodeValueSet">
                              <valueOid value="urn:oid:2.16.840.1.114222.4.11.7508"/>
                           </extension>
                           <extension url="triggerCodeValueSetVersion">
                              <valueString value="2020-11-13"/>
                           </extension>
                           <extension url="triggerCode">
                              <valueCoding>
                                 <system value="http://snomed.info/sct"/>
                                 <code value="233573008"/>
                                 <display value="Extracorporeal membrane oxygenation (procedure)"/>
                              </valueCoding>
                           </extension>
                        </extension>
                        <reference value="urn:uuid:810125fb-ff87-4314-b71a-5d3b82c4acbc"/>
                     </entry>
                     <!--2.16.840.1.113883.10.20.22.4.12:2014-06-09-->
                     <!--2.16.840.1.113883.10.20.15.2.3.45:2021-01-01-->
                     <entry>
                        <extension url="http://hl7.org/fhir/us/ecr/StructureDefinition/eicr-trigger-code-flag-extension">
                           <extension url="triggerCodeValueSet">
                              <valueOid value="urn:oid:2.16.840.1.114222.4.11.7508"/>
                           </extension>
                           <extension url="triggerCodeValueSetVersion">
                              <valueString value="2020-11-13"/>
                           </extension>
                           <extension url="triggerCode">
                              <valueCoding>
                                 <system value="http://snomed.info/sct"/>
                                 <code value="409524006"/>
                                 <display value="Airborn precautions (procedure)"/>
                              </valueCoding>
                           </extension>
                        </extension>
                        <reference value="urn:uuid:9d1cfe1c-5c96-45df-b9f8-ecb187a00e72"/>
                     </entry>
                     <!--2.16.840.1.113883.10.20.22.4.13:2014-06-09-->
                     <!--2.16.840.1.113883.10.20.15.2.3.46:2021-01-01-->
                     <entry>
                        <extension url="http://hl7.org/fhir/us/ecr/StructureDefinition/eicr-trigger-code-flag-extension">
                           <extension url="triggerCodeValueSet">
                              <valueOid value="urn:oid:2.16.840.1.114222.4.11.7508"/>
                           </extension>
                           <extension url="triggerCodeValueSetVersion">
                              <valueString value="2020-11-13"/>
                           </extension>
                           <extension url="triggerCode">
                              <valueCoding>
                                 <system value="http://snomed.info/sct"/>
                                 <code value="385857005"/>
                                 <display value="Ventilator care and adjustment (regime/therapy)"/>
                              </valueCoding>
                           </extension>
                        </extension>
                        <reference value="urn:uuid:af577d7f-d082-48ec-9faa-56c6ee05bf5e"/>
                     </entry>
                  </section>
                  <section>
                     <title value="Immunizations"/>
                     <code>
                        <coding>
                           <system value="http://loinc.org"/>
                           <code value="11369-6"/>
                           <display value="Hx of Immunization"/>
                        </coding>
                     </code>
                     <text>
                        <status value="additional"/>
                        <div xmlns="http://www.w3.org/1999/xhtml">
                           <table>
                              <thead>
                                 <tr>
                                    <th>Immunization</th>
                                    <th>Immunization Date</th>
                                 </tr>
                              </thead>
                              <tbody>
                                 <tr>
                                    <td>diphtheria, tetanus toxoids and acellular<br/>pertussis vaccine, 5 pertussis antigens</td>
                                    <td>NOV 11, 2020</td>
                                 </tr>
                              </tbody>
                           </table>
                           <table>
                              <thead>
                                 <tr>
                                    <th>Initial Case Report Trigger Code<br/>Immunization Medication Activity</th>
                                    <th>Immunization Date</th>
                                    <th>Trigger<br/>Code</th>
                                    <th>Trigger Code<br/>codeSystem</th>
                                    <th>RCTC OID</th>
                                    <th>RCTC<br/>Version</th>
                                 </tr>
                              </thead>
                              <tbody>
                                 <tr>
                                    <td>influenza virus vaccine, unspecified formulation</td>
                                    <td>NOV 11, 2020</td>
                                    <td>88</td>
                                    <td>CVX</td>
                                    <td>2.16.840.1.114222.4.11.7508</td>
                                    <td>19/05/2020</td>
                                 </tr>
                              </tbody>
                           </table>
                           <table>
                              <thead>
                                 <tr>
                                    <th>Vaccinne Credential Patient Assertion</th>
                                    <th>Assertion Date</th>
                                 </tr>
                              </thead>
                              <tbody>
                                 <tr>
                                    <td>Yes</td>
                                    <td>NOV 11, 2020</td>
                                 </tr>
                              </tbody>
                           </table>
                        </div>
                     </text>
                     <!--2.16.840.1.113883.10.20.22.4.52:2015-08-01-->
                     <entry>
                        <reference value="urn:uuid:fafb8f66-0447-4bf9-a4fc-b1d505e94044"/>
                     </entry>
                     <!--2.16.840.1.113883.10.20.22.4.52:2015-08-01-->
                     <entry>
                        <extension url="http://hl7.org/fhir/us/ecr/StructureDefinition/eicr-trigger-code-flag-extension">
                           <extension url="triggerCodeValueSet">
                              <valueOid value="urn:oid:2.16.840.1.114222.4.11.7508"/>
                           </extension>
                           <extension url="triggerCodeValueSetVersion">
                              <valueString value="2020-11-13"/>
                           </extension>
                           <extension url="triggerCode">
                              <valueCoding>
                                 <system value="http://hl7.org/fhir/sid/cvx"/>
                                 <code value="24"/>
                                 <display value="anthrax vaccine"/>
                              </valueCoding>
                           </extension>
                        </extension>
                        <reference value="urn:uuid:0dede32f-eb40-4951-b591-3c9674fa6f3e"/>
                     </entry>
                     <!--2.16.840.1.113883.10.20.15.2.3.55:2021-01-01-->
                     <entry>
                        <reference value="urn:uuid:aae469dd-30d7-49a1-97b2-1f55798a0692"/>
                     </entry>
                  </section>
                  <section>
                     <title value="Social History"/>
                     <code>
                        <coding>
                           <system value="http://loinc.org"/>
                           <code value="29762-2"/>
                           <display value="Social History"/>
                        </coding>
                     </code>
                     <text>
                        <status value="additional"/>
                        <div xmlns="http://www.w3.org/1999/xhtml">
                           <table>
                              <thead>
                                 <tr>
                                    <th>Birth Sex</th>
                                    <th>Value</th>
                                    <th>Date</th>
                                 </tr>
                              </thead>
                              <tbody>
                                 <tr>
                                    <td>Sex Assigned At Birth</td>
                                    <td>Female</td>
                                    <td>NOV 24, 1974</td>
                                 </tr>
                              </tbody>
                           </table>
                           <table>
                              <thead>
                                 <tr>
                                    <th>Gender identity</th>
                                    <th>Date</th>
                                 </tr>
                              </thead>
                              <tbody>
                                 <tr>
                                    <td>Female-to-male transsexual (finding)</td>
                                    <td>JAN 1, 2020</td>
                                 </tr>
                              </tbody>
                           </table>
                           <table>
                              <thead>
                                 <tr>
                                    <th>Characteristics of Home Environment</th>
                                    <th>Date</th>
                                 </tr>
                              </thead>
                              <tbody>
                                 <tr>
                                    <td>Homeless</td>
                                    <td>NOV 9, 2020</td>
                                 </tr>
                              </tbody>
                           </table>
                           <table>
                              <thead>
                                 <tr>
                                    <th>Exposure/Contact Information</th>
                                    <th>Date</th>
                                    <th>Location</th>
                                    <th>Address</th>
                                 </tr>
                              </thead>
                              <tbody>
                                 <tr>
                                    <td>Mass Gathering: Football game</td>
                                    <td>November 11, 2020</td>
                                    <td>City Football Stadium</td>
                                    <td>99 Football Stadium Road, My City, AZ, 8562</td>
                                 </tr>
                              </tbody>
                           </table>
                           <table>
                              <thead>
                                 <tr>
                                    <th>Current Occupation</th>
                                    <th>Current Industry</th>
                                    <th>Current Job Title</th>
                                    <th>Current Employer Name</th>
                                    <th>Current Employer Address</th>
                                    <th>Current Employer Telcom</th>
                                    <th>Occupational Exposure</th>
                                 </tr>
                              </thead>
                              <tbody>
                                 <tr>
                                    <td>Nursing, psychiatric, and home health aides</td>
                                    <td>Accounting, tax preparation, bookkeeping, and payroll services</td>
                                    <td>Nurse</td>
                                    <td>University Hospital</td>
                                    <td>Peachtree Street, Atlanta, Georgia</td>
                                    <td>555-1212</td>
                                    <td>Nursing care facilities</td>
                                    <td>Asbestos</td>
                                 </tr>
                              </tbody>
                           </table>
                           <table>
                              <thead>
                                 <tr>
                                    <th>Usual Occupation</th>
                                    <th>Usual Industry</th>
                                 </tr>
                              </thead>
                              <tbody>
                                 <tr>
                                    <td>Nursing, psychiatric, and home health aides</td>
                                    <td>Nursing care facilities</td>
                                 </tr>
                              </tbody>
                           </table>
                           <table>
                              <thead>
                                 <tr>
                                    <th>Travel History: Date(s)</th>
                                    <th>Notes</th>
                                    <th>Location</th>
                                 </tr>
                              </thead>
                              <tbody>
                                 <tr>
                                    <td>1999 to 2007</td>
                                    <td>Spent 8 years in the UK during the BSE outbreak</td>
                                    <td/>
                                 </tr>
                                 <tr>
                                    <td>In the 3 weeks before NOV 9, 2020</td>
                                    <td/>
                                    <td>
                                       <ul>
                                          <li>Brazil</li>
                                       </ul>
                                    </td>
                                 </tr>
                                 <tr>
                                    <td>APR 25, 2020 to APR 30, 2020</td>
                                    <td/>
                                    <td>
                                       <ul>
                                          <li>Nadi, FJ</li>
                                       </ul>
                                    </td>
                                 </tr>
                                 <tr>
                                    <td>MAY 6, 2020 to MAY 15, 2020</td>
                                    <td/>
                                    <td>
                                       <ul>
                                          <li>Montreal, QC, CA</li>
                                       </ul>
                                    </td>
                                 </tr>
                                 <tr>
                                    <td>JUL 13, 2020 to JUL 15, 2020</td>
                                    <td/>
                                    <td>
                                       <ul>
                                          <li>Sydney, NSW, AU</li>
                                       </ul>
                                    </td>
                                 </tr>
                                 <tr>
                                    <td>OCT 22, 2020 to OCT 30, 2020</td>
                                    <td/>
                                    <td>
                                       <ul>
                                          <li>1170 N Rancho Robles Rd Oracle, AZ8562, US</li>
                                       </ul>
                                    </td>
                                 </tr>
                              </tbody>
                           </table>
                           <table>
                              <thead>
                                 <tr>
                                    <th>Country of Residence</th>
                                 </tr>
                              </thead>
                              <tbody>
                                 <tr>
                                    <td>United Kingdom of Great Britain and Northern Ireland</td>
                                 </tr>
                              </tbody>
                           </table>
                           <table>
                              <thead>
                                 <tr>
                                    <th>Country of Nationality</th>
                                 </tr>
                              </thead>
                              <tbody>
                                 <tr>
                                    <td>Australia</td>
                                 </tr>
                              </tbody>
                           </table>
                        </div>
                     </text>
                     <!--2.16.840.1.113883.10.20.22.4.109-->
                     <entry>
                        <reference value="urn:uuid:30ba6e1f-2bf2-45f5-85ba-798ac1c7c1c9"/>
                     </entry>
                     <!--2.16.840.1.113883.10.20.15.2.3.52:2021-01-01-->
                     <entry>
                        <reference value="urn:uuid:5ec775a9-36b4-4ea6-b062-323ca6655d2b"/>
                     </entry>
                     <!--2.16.840.1.113883.10.20.15.2.3.52:2021-01-01-->
                     <entry>
                        <reference value="urn:uuid:6f1b5c7b-31bb-413b-b6cf-c9dbaf961c8b"/>
                     </entry>
                     <!--2.16.840.1.113883.10.20.15.2.3.52:2021-01-01-->
                     <entry>
                        <reference value="urn:uuid:6003e709-809b-4242-accb-24f797fede3e"/>
                     </entry>
                     <!--2.16.840.1.113883.10.20.15.2.3.1:2021-01-01-->
                     <entry>
                        <reference value="urn:uuid:9e8f53c1-0d0a-4a15-8bf9-1809eb764b5d"/>
                     </entry>
                     <!--2.16.840.1.113883.10.20.15.2.3.1:2021-01-01-->
                     <entry>
                        <reference value="urn:uuid:44b60597-94e2-4689-8498-5e3106b9db30"/>
                     </entry>
                     <!--2.16.840.1.113883.10.20.15.2.3.1:2021-01-01-->
                     <entry>
                        <reference value="urn:uuid:e1870ca6-91a4-46ec-a88e-cfe50f5d4814"/>
                     </entry>
                     <!--2.16.840.1.113883.10.20.15.2.3.1:2021-01-01-->
                     <entry>
                        <reference value="urn:uuid:abfaa8b3-a601-45f8-90da-d74d2692bc96"/>
                     </entry>
                     <!--2.16.840.1.113883.10.20.15.2.3.1:2021-01-01-->
                     <entry>
                        <reference value="urn:uuid:a58265eb-52c6-4c8e-a7a8-904c0ffe7f7c"/>
                     </entry>
                     <!--2.16.840.1.113883.10.20.15.2.3.1:2021-01-01-->
                     <entry>
                        <reference value="urn:uuid:d5131d90-bfcc-4a47-ba5a-11b7918456b1"/>
                     </entry>
                     <!--2.16.840.1.113883.10.20.15.2.3.53:2021-01-01-->
                     <entry>
                        <reference value="urn:uuid:3d85bacb-191c-460d-87fe-0c39374bb1a9"/>
                     </entry>
                     <!--2.16.840.1.113883.10.20.15.2.3.54:2021-01-01-->
                     <entry>
                        <reference value="urn:uuid:6bcf10fc-6605-4ec0-b4ca-ddb65523169d"/>
                     </entry>
                     <!--2.16.840.1.113883.10.20.15.2.3.47:2021-01-01-->
                     <entry>
                        <reference value="urn:uuid:ee20a009-15a1-44aa-bcca-c36164c0eec5"/>
                     </entry>
                     <!--2.16.840.1.113883.10.20.15.2.3.48:2021-01-01-->
                     <entry>
                        <reference value="urn:uuid:9789df0a-1437-49bc-b44d-4a5a273c0949"/>
                     </entry>
                     <!--2.16.840.1.113883.10.20.22.4.221:2020-09-01-->
                     <entry>
                        <reference value="urn:uuid:47bcb8fe-b62d-42b3-9ed7-263c66aa785f"/>
                     </entry>
                     <!--2.16.840.1.113883.10.20.22.4.217:2020-09-01-->
                     <entry>
                        <reference value="urn:uuid:1faae745-c236-428d-ae63-ba833fd0bfca"/>
                     </entry>
                  </section>
                  <section>
                     <title value="Pregnancy Section"/>
                     <code>
                        <coding>
                           <system value="http://loinc.org"/>
                           <code value="90767-5"/>
                           <display value="Pregnancy summary Document"/>
                        </coding>
                     </code>
                     <text>
                        <status value="generated"/>
                        <div xmlns="http://www.w3.org/1999/xhtml">
                           <table>
                              <thead>
                                 <tr>
                                    <th>Pregnancy Status</th>
                                    <th>Date(s) over which status holds<br/>(if no high date, status was<br/>current at time of recording)</th>
                                    <th>Determination Method</th>
                                    <th>Determination Date</th>
                                    <th>Recorded Date</th>
                                 </tr>
                              </thead>
                              <tbody>
                                 <tr>
                                    <td>Pregnant</td>
                                    <td>AUG 26, 2017</td>
                                    <td>Diagnostic ultrasonography</td>
                                    <td>OCT 1, 2017</td>
                                    <td>OCT 1, 2017 10:35</td>
                                 </tr>
                                 <tr>
                                    <td>
                                       <ul>
                                          <li>
                                             <table>
                                                <thead>
                                                   <tr>
                                                      <th>Estimated Date of Delivery</th>
                                                      <th>EDD</th>
                                                      <th>EDD Determination Date</th>
                                                   </tr>
                                                </thead>
                                                <tbody>
                                                   <tr>
                                                      <td>Delivery date estimated from ovulation date</td>
                                                      <td>MAY 22, 2017</td>
                                                      <td>OCT 1, 2017 10:15</td>
                                                   </tr>
                                                </tbody>
                                             </table>
                                             <table>
                                                <thead>
                                                   <tr>
                                                      <th>Estimated Gestational Age of Pregnancy</th>
                                                      <th>Days</th>
                                                      <th>Determination Date</th>
                                                   </tr>
                                                </thead>
                                                <tbody>
                                                   <tr>
                                                      <td>Gestational age Estimated from selected delivery date</td>
                                                      <td>143 d</td>
                                                      <td>OCT 1, 2017 10:15</td>
                                                   </tr>
                                                   <tr>
                                                      <td>
                                                         <ul>
                                                            <li>
                                                               <table>
                                                                  <thead>
                                                                     <tr>
                                                                        <th>Reference to selected delivery date</th>
                                                                     </tr>
                                                                  </thead>
                                                                  <tbody>
                                                                     <tr>
                                                                        <td>Link to referenced entry</td>
                                                                     </tr>
                                                                  </tbody>
                                                               </table>
                                                            </li>
                                                         </ul>
                                                      </td>
                                                   </tr>
                                                </tbody>
                                             </table>
                                             <table>
                                                <thead>
                                                   <tr>
                                                      <th>Pregnancy Outcome</th>
                                                      <th>Birth Order</th>
                                                      <th>Time</th>
                                                      <th>Method of Delivery</th>
                                                   </tr>
                                                </thead>
                                                <tbody>
                                                   <tr>
                                                      <td>Stillbirth (finding)</td>
                                                      <td>1</td>
                                                      <td>JAN 5, 2020 08:50</td>
                                                      <td>Breech delivery (procedure)</td>
                                                   </tr>
                                                   <tr>
                                                      <td>Term birth of newborn (finding)</td>
                                                      <td>2</td>
                                                      <td>JAN 5, 2020 10:05</td>
                                                      <td>Breech delivery (procedure)</td>
                                                   </tr>
                                                </tbody>
                                             </table>
                                          </li>
                                       </ul>
                                    </td>
                                 </tr>
                              </tbody>
                           </table>
                           <table>
                              <thead>
                                 <tr>
                                    <th>Last menstrual period start date</th>
                                    <th>Observation Date</th>
                                 </tr>
                              </thead>
                              <tbody>
                                 <tr>
                                    <td>AUG 1, 2017</td>
                                    <td>JAN 5, 2020 10:15</td>
                                 </tr>
                              </tbody>
                           </table>
                           <table>
                              <thead>
                                 <tr>
                                    <th>Postpartum Status</th>
                                    <th>Observation date</th>
                                 </tr>
                              </thead>
                              <tbody>
                                 <tr>
                                    <td>Mid postpartum state (finding)</td>
                                    <td>JAN 5, 2020 10:15</td>
                                 </tr>
                              </tbody>
                           </table>
                        </div>
                     </text>
                     <!--2.16.840.1.113883.10.20.15.3.8-->
                     <!--2.16.840.1.113883.10.20.22.4.293:2020-04-01-->
                     <entry>
                        <reference value="urn:uuid:b7323475-db68-4ec3-993d-be82ef1b8f76"/>
                     </entry>
                     <!--2.16.840.1.113883.10.20.30.3.34:2014-06-09-->
                     <entry>
                        <reference value="urn:uuid:472c184a-f7f8-4414-b813-0a158184beca"/>
                     </entry>
                     <!--2.16.840.1.113883.10.20.22.4.285:2020-04-01-->
                     <entry>
                        <reference value="urn:uuid:cd26d92e-4e5e-4048-91a2-430b7e3e6353"/>
                     </entry>
                     <entry>
                        <reference value="urn:uuid:79f03052-f89f-400a-a2ba-07f2b927b692"/>
                     </entry>
                     <!--2.16.840.1.113883.10.20.22.4.284:2020-04-01-->
                     <entry>
                        <reference value="urn:uuid:ff16794a-024f-4be8-b240-d48887196f25"/>
                     </entry>
                  </section>
                  <section>
                     <title value="Vital Signs (Last Filed)"/>
                     <code>
                        <coding>
                           <system value="http://loinc.org"/>
                           <code value="8716-3"/>
                           <display value="Vital Signs"/>
                        </coding>
                     </code>
                     <text>
                        <status value="generated"/>
                        <div xmlns="http://www.w3.org/1999/xhtml">
                           <table>
                              <thead>
                                 <tr>
                                    <th>Date</th>
                                    <th>Blood Pressure</th>
                                    <th>Pulse</th>
                                    <th>Temperature</th>
                                    <th>Respiratory Rate</th>
                                    <th>Height</th>
                                    <th>Weight</th>
                                    <th>BMI</th>
                                    <th>SpO2</th>
                                 </tr>
                              </thead>
                              <tbody>
                                 <tr>
                                    <td>05/20/2014 7:36pm</td>
                                    <td>
                                       <span>120</span>/<span>80</span>mm[Hg] </td>
                                    <td>80 /min</td>
                                    <td>99.0 F</td>
                                    <td>18 /min</td>
                                    <td>5'7 (67 inches)</td>
                                    <td>239.9 lbs</td>
                                    <td>37.58 kg/m2</td>
                                    <td>98%</td>
                                 </tr>
                              </tbody>
                           </table>
                        </div>
                     </text>
                     <!--2.16.840.1.113883.10.20.22.4.26-->
                     <!--2.16.840.1.113883.10.20.22.4.26:2015-08-01-->
                     <entry>
                        <reference value="urn:uuid:c74da2e5-2f0a-43a3-8d76-25ea0f9fc5bf"/>
                     </entry>
                  </section>
                  <section>
                     <title value="Emergency Outbreak Information Section"/>
                     <code>
                        <coding>
                           <system value="http://loinc.org"/>
                           <code value="83910-0"/>
                           <display value="Public health Note"/>
                        </coding>
                     </code>
                     <text>
                        <status value="generated"/>
                        <div xmlns="http://www.w3.org/1999/xhtml">
                           <table>
                              <thead>
                                 <tr>
                                    <th>Information Type</th>
                                    <th>Information Date</th>
                                    <th>Result</th>
                                 </tr>
                              </thead>
                              <tbody>
                                 <tr>
                                    <td>Employee desk distance from mail sorter</td>
                                    <td>1 November 2020</td>
                                    <td>2 meters</td>
                                 </tr>
                              </tbody>
                           </table>
                        </div>
                     </text>
                     <!--2.16.840.1.113883.10.20.15.2.3.40:2021-01-01-->
                     <entry>
                        <reference value="urn:uuid:70810be1-3311-4f8e-bf61-2ba81702a28e"/>
                     </entry>
                  </section>
                  <section>
                     <title value="Reportability Response Information Section"/>
                     <code>
                        <coding>
                           <system value="http://loinc.org"/>
                           <code value="88085-6"/>
                           <display value="Reportability response report Document Public health"/>
                        </coding>
                     </code>
                     <text>
                        <status value="generated"/>
                        <div xmlns="http://www.w3.org/1999/xhtml">
                           <table>
                              <thead>
                                 <tr>
                                    <th>TODO</th>
                                 </tr>
                              </thead>
                              <tbody>
                                 <tr>
                                    <td>TODO</td>
                                 </tr>
                              </tbody>
                           </table>
                        </div>
                     </text>
                     <!--2.16.840.1.113883.10.20.15.2.3.12:2017-04-01-->
                     <entry>
                        <reference value="urn:uuid:449c59bc-adbf-4bb6-a9e9-119a14229171"/>
                     </entry>
                  </section>
               </Composition>
            </resource>
         </entry>
         <entry>
            <fullUrl value="urn:uuid:69eb049b-1361-4348-906c-de1abbe21a53"/>
            <resource>
               <Patient>
                  <meta>
                     <profile value="http://hl7.org/fhir/us/ecr/StructureDefinition/us-ph-patient"/>
                  </meta>
                  <text>
                     <status value="generated"/>
                     <div xmlns="http://www.w3.org/1999/xhtml">
                        <h1>Everywoman, Eve H</h1>
                        <p>Alternate name: Everywoman, Ruth L</p>
                        <p>Telecom: tel:+1-555-555-2003</p>
                        <p>Telecom: tel:+1-555-555-2004</p>
                        <p>Address: 2222 Home Street<br/>Ann Arbor<br/>MI<br/>99999<br/>26001<br/>US<br/>
                        </p>
                        <p>Gender: F</p>
                        <p>Birthdate: 1974-11-24</p>
                        <p>Language: en</p>
                     </div>
                  </text>
                  <extension url="http://hl7.org/fhir/us/core/StructureDefinition/us-core-race">
                     <extension url="ombCategory">
                        <valueCoding>
                           <system value="urn:oid:2.16.840.1.113883.6.238"/>
                           <code value="2106-3"/>
                           <display value="White"/>
                        </valueCoding>
                     </extension>
                     <extension url="text">
                        <valueString value="White"/>
                     </extension>
                  </extension>
                  <extension url="http://hl7.org/fhir/us/core/StructureDefinition/us-core-ethnicity">
                     <extension url="ombCategory">
                        <valueCoding>
                           <system value="urn:oid:2.16.840.1.113883.6.238"/>
                           <code value="2186-5"/>
                           <display value="Not Hispanic or Latino"/>
                        </valueCoding>
                     </extension>
                     <extension url="text">
                        <valueString value="Not Hispanic or Latino"/>
                     </extension>
                  </extension>
                  <extension url="http://hl7.org/fhir/us/core/StructureDefinition/us-core-birthsex">
                     <valueCode value="F"/>
                  </extension>
                  <extension url="http://hl7.org/fhir/StructureDefinition/patient-genderIdentity">
                     <valueCodeableConcept>
                        <coding>
                           <system value="http://snomed.info/sct"/>
                           <code value="407377005"/>
                           <display value="Female-to-male transsexual (finding)"/>
                        </coding>
                     </valueCodeableConcept>
                  </extension>
                  <identifier>
                     <system value="urn:oid:2.16.840.1.113883.19.5"/>
                     <value value="123453"/>
                  </identifier>
                  <identifier>
                     <system value="http://hl7.org/fhir/sid/us-ssn"/>
                     <value value="444-22-2222"/>
                  </identifier>
                  <name>
                     <use value="usual"/>
                     <text value="Everywoman, Eve H (usual name)"/>
                     <family value="Everywoman"/>
                     <given value="Eve"/>
                     <given value="H"/>
                  </name>
                  <name>
                     <text value="Everywoman, Ruth L"/>
                     <family value="Everywoman"/>
                     <given value="Ruth"/>
                     <given value="L"/>
                  </name>
                  <telecom>
                     <system value="phone"/>
                     <value value="+1-555-555-2003"/>
                     <use value="home"/>
                  </telecom>
                  <telecom>
                     <system value="phone"/>
                     <value value="+1-555-555-2004"/>
                     <use value="work"/>
                  </telecom>
                  <gender value="female"/>
                  <birthDate value="1974-11-24"/>
                  <deceasedBoolean value="false"/>
                  <address>
                     <use value="home"/>
                     <line value="2222 Home Street"/>
                     <city value="Ann Arbor"/>
                     <district value="26001"/>
                     <state value="MI"/>
                     <postalCode value="99999"/>
                     <country value="US"/>
                     <period>
                        <start value="2000-07-20T08:45:00+10:00"/>
                     </period>
                  </address>
                  <contact>
                     <relationship>
                        <coding>
                           <system value="http://terminology.hl7.org/CodeSystem/v3-RoleClass"/>
                           <code value="GUARD"/>
                        </coding>
                     </relationship>
                     <name>
                        <use value="usual"/>
                        <text value="Mum, Martha L (usual name)"/>
                        <family value="Mum"/>
                        <given value="Martha"/>
                        <given value="L"/>
                     </name>
                     <telecom>
                        <system value="phone"/>
                        <value value="+1-555-555-2006"/>
                        <use value="home"/>
                     </telecom>
                     <telecom>
                        <system value="email"/>
                        <value value="mail@guardian.com"/>
                     </telecom>
                     <address>
                        <use value="home"/>
                        <line value="4444 Home Street"/>
                        <city value="Ann Arbor"/>
                        <state value="MI"/>
                        <postalCode value="99999"/>
                        <country value="US"/>
                     </address>
                  </contact>
                  <communication>
                     <language>
                        <coding>
                           <system value="urn:ietf:bcp:47"/>
                           <code value="en"/>
                        </coding>
                     </language>
                     <preferred value="true"/>
                  </communication>
               </Patient>
            </resource>
         </entry>
         <entry>
            <fullUrl value="urn:uuid:b52e8713-1a85-46b1-9802-25b93ddad5cc"/>
            <resource>
               <Encounter><!--In Encounter-->
                  <meta>
                     <profile value="http://hl7.org/fhir/us/ecr/StructureDefinition/eicr-encounter"/>
                     <!--CDA participant: ClinicalDocument[templateId/@root='2.16.840.1.113883.10.20.15.2'][templateId/@extension='2021-01-01']/componentOf/encompassingEncounter-->
                  </meta>
                  <text>
                     <status value="generated"/>
                     <div xmlns="http://www.w3.org/1999/xhtml">
                        <table>
                           <thead>
                              <tr>
                                 <th>Encounter</th>
                                 <th>Date(s)</th>
                                 <th>Location</th>
                              </tr>
                           </thead>
                           <tbody>
                              <tr>
                                 <td>Office outpatient visit 15 minutes</td>
                                 <td>NOV 7, 2020</td>
                                 <td>
                                    <ul>
                                       <li>
                                          <span class="Italics">Urgent Care Center</span>
                                       </li>
                                    </ul>
                                 </td>
                              </tr>
                              <tr>
                                 <td>
                                    <ul>
                                       <li>
                                          <table>
                                             <thead>
                                                <tr>
                                                   <th>Encounter Diagnosis Type</th>
                                                </tr>
                                             </thead>
                                             <tbody>
                                                <tr>
                                                   <td>Diagnosis</td>
                                                </tr>
                                                <tr>
                                                   <td>
                                                      <ul>
                                                         <li>
                                                            <table>
                                                               <thead>
                                                                  <tr>
                                                                     <th>Initial Case Report Trigger<br/>Code Problem Observation </th>
                                                                     <th>Problem</th>
                                                                     <th>Trigger Code</th>
                                                                     <th>Trigger Code codeSystem</th>
                                                                     <th>RCTC OID</th>
                                                                     <th>RCTC Version</th>
                                                                     <th>Date(s)</th>
                                                                  </tr>
                                                               </thead>
                                                               <tbody>
                                                                  <tr>
                                                                     <td>Diagnosis</td>
                                                                     <td>Pertussis (disorder)</td>
                                                                     <td>27836007</td>
                                                                     <td>SNOMED CT</td>
                                                                     <td>2.16.840.1.114222.4.11.7508</td>
                                                                     <td>19/05/2020</td>
                                                                     <td>NOV 7, 2020</td>
                                                                  </tr>
                                                               </tbody>
                                                            </table>
                                                            <table>
                                                               <thead>
                                                                  <tr>
                                                                     <th>Encounter Diagnosis Type</th>
                                                                  </tr>
                                                               </thead>
                                                               <tbody>
                                                                  <tr>
                                                                     <td>Diagnosis</td>
                                                                  </tr>
                                                                  <tr>
                                                                     <td>
                                                                        <ul>
                                                                           <li>
                                                                              <table>
                                                                                 <thead>
                                                                                    <tr>
                                                                                       <th>Problem Type</th>
                                                                                       <th>Problem</th>
                                                                                       <th>Date(s)</th>
                                                                                    </tr>
                                                                                 </thead>
                                                                                 <tbody>
                                                                                    <tr>
                                                                                       <td>Diagnosis</td>
                                                                                       <td>A non-trigger code diagnosis (disorder)</td>
                                                                                       <td>NOV 7, 2020</td>
                                                                                    </tr>
                                                                                 </tbody>
                                                                              </table>
                                                                           </li>
                                                                        </ul>
                                                                     </td>
                                                                  </tr>
                                                               </tbody>
                                                            </table>
                                                         </li>
                                                      </ul>
                                                   </td>
                                                </tr>
                                             </tbody>
                                          </table>
                                       </li>
                                    </ul>
                                 </td>
                              </tr>
                           </tbody>
                        </table>
                        <p>...</p>
                     </div>
                  </text>
                  <identifier>
                     <system value="urn:oid:2.16.840.1.113883.19"/>
                     <value value="9937012"/>
                  </identifier>
                  <status value="in-progress"/>
                  <class>
                     <system value="http://terminology.hl7.org/CodeSystem/v3-ActCode"/>
                     <code value="AMB"/>
                  </class>
                  <type>
                     <coding>
                        <system value="http://terminology.hl7.org/CodeSystem/v3-ActCode"/>
                        <code value="AMB"/>
                        <display value="Ambulatory"/>
                     </coding>
                  </type>
                  <subject>
                     <reference value="urn:uuid:69eb049b-1361-4348-906c-de1abbe21a53"/>
                  </subject>
                  <participant><!--In participant-->
                     <type>
                        <coding>
                           <system value="http://terminology.hl7.org/CodeSystem/v3-ParticipationType"/>
                           <code value="ATND"/>
                        </coding>
                     </type>
                     <individual>
                        <reference value="urn:uuid:0ac57f55-34af-4230-9810-37270aa23efc"/>
                     </individual>
                  </participant>
                  <period>
                     <start value="2020-11-07"/>
                  </period>
                  <diagnosis>
                     <extension url="http://hl7.org/fhir/us/ecr/StructureDefinition/eicr-trigger-code-flag-extension">
                        <extension url="triggerCodeValueSet">
                           <valueOid value="urn:oid:2.16.840.1.114222.4.11.7508"/>
                        </extension>
                        <extension url="triggerCodeValueSetVersion">
                           <valueString value="2020-11-13"/>
                        </extension>
                        <extension url="triggerCode">
                           <valueCoding>
                              <system value="http://snomed.info/sct"/>
                              <code value="27836007"/>
                              <display value="Pertussis (disorder)"/>
                           </valueCoding>
                        </extension>
                     </extension>
                     <condition><!--2.16.840.1.113883.10.20.22.4.4--><!--2.16.840.1.113883.10.20.22.4.4:2015-08-01--><!--2.16.840.1.113883.10.20.15.2.3.3:2019-04-01-->
                        <reference value="urn:uuid:baa69f74-8dd2-4509-b55b-d533a589fcce"/>
                     </condition>
                  </diagnosis>
                  <diagnosis>
                     <condition><!--2.16.840.1.113883.10.20.22.4.4--><!--2.16.840.1.113883.10.20.22.4.4:2015-08-01-->
                        <reference value="urn:uuid:d12440f3-51fa-4f54-9d78-08bded9bb42e"/>
                     </condition>
                  </diagnosis>
                  <location>
                     <location>
                        <reference value="urn:uuid:33fbf9a5-53df-4d41-a476-d40b25692aba"/>
                     </location>
                  </location>
                  <serviceProvider>
                     <reference value="urn:uuid:3ba05a29-8095-4164-878c-f8feac7a82cf"/>
                  </serviceProvider>
               </Encounter>
            </resource>
         </entry>
         <entry>
            <fullUrl value="urn:uuid:0ac57f55-34af-4230-9810-37270aa23efc"/>
            <resource>
               <PractitionerRole>
                  <meta>
                     <profile value="http://hl7.org/fhir/us/ecr/StructureDefinition/us-ph-practitionerrole"/>
                  </meta>
                  <!--responsibleParty/assignedEntity-->
                  <identifier>
                     <system value="http://hl7.org/fhir/sid/us-npi"/>
                     <value value="6666666666666"/>
                  </identifier>
                  <practitioner>
                     <reference value="urn:uuid:ef3d9563-213c-4077-891f-20720faba439"/>
                  </practitioner>
                  <organization>
                     <reference value="urn:uuid:0add57f2-a99e-4042-b0da-e0c4b00e8d0b"/>
                  </organization>
                  <telecom>
                     <system value="phone"/>
                     <value value="+1(555)555-1003"/>
                     <use value="work"/>
                  </telecom>
                  <telecom>
                     <system value="fax"/>
                     <value value="+1(555)555-1234"/>
                     <use value="work"/>
                  </telecom>
                  <telecom>
                     <system value="email"/>
                     <value value="mail@provider_domain.com"/>
                     <use value="work"/>
                  </telecom>
               </PractitionerRole>
            </resource>
         </entry>
         <entry>
            <fullUrl value="urn:uuid:ef3d9563-213c-4077-891f-20720faba439"/>
            <resource>
               <Practitioner><!--assignedEntity[cda:id[@root="2.16.840.1.113883.4.6"]]/assignedPerson-->
                  <meta>
                     <profile value="http://hl7.org/fhir/us/core/StructureDefinition/us-core-practitioner"/>
                  </meta>
                  <text>
                     <status value="generated"/>
                     <div xmlns="http://www.w3.org/1999/xhtml">
                        <p>Name: Seven, Henry</p>
                        <p>---TODO: ID info---</p>
                        <p>Telephone: tel:+1(555)555-1003 fax:+1(555)555-1234 mailto:mail@provider_domain.com</p>
                     </div>
                  </text>
                  <identifier>
                     <system value="http://hl7.org/fhir/sid/us-npi"/>
                     <value value="6666666666666"/>
                  </identifier>
                  <name>
                     <text value="Seven, M.D., Henry"/>
                     <family value="Seven"/>
                     <given value="Henry"/>
                     <suffix value="M.D."/>
                  </name>
                  <telecom>
                     <system value="phone"/>
                     <value value="+1(555)555-1003"/>
                     <use value="work"/>
                  </telecom>
                  <telecom>
                     <system value="fax"/>
                     <value value="+1(555)555-1234"/>
                     <use value="work"/>
                  </telecom>
                  <telecom>
                     <system value="email"/>
                     <value value="mail@provider_domain.com"/>
                     <use value="work"/>
                  </telecom>
                  <address>
                     <line value="1002 Healthcare Drive"/>
                     <city value="Ann Arbor"/>
                     <state value="MI"/>
                     <postalCode value="99999"/>
                     <country value="US"/>
                  </address>
               </Practitioner>
            </resource>
         </entry>
         <entry>
            <fullUrl value="urn:uuid:0add57f2-a99e-4042-b0da-e0c4b00e8d0b"/>
            <resource>
               <Organization>
                  <meta>
                     <profile value="http://hl7.org/fhir/us/ecr/StructureDefinition/us-ph-organization"/>
                     <!--CDA participant: ClinicalDocument[templateId/@root='2.16.840.1.113883.10.20.15.2'][templateId/@extension='2021-01-01']/componentOf/encompassingEncounter/responsibleParty/assignedEntity/representedOrganization-->
                  </meta>
                  <identifier>
                     <system value="urn:ietf:rfc:3986"/>
                     <value value="urn:uuid:0add57f2-a99e-4042-b0da-e0c4b00e8d0b"/>
                  </identifier>
                  <active value="true"/>
                  <name value="Community Health and Hospitals"/>
                  <telecom>
                     <system value="phone"/>
                     <value value="+1(555)555-1003"/>
                     <use value="work"/>
                  </telecom>
                  <telecom>
                     <system value="fax"/>
                     <value value="+1(555)555-1234"/>
                     <use value="work"/>
                  </telecom>
                  <telecom>
                     <system value="email"/>
                     <value value="mail@provider_domain.com"/>
                     <use value="work"/>
                  </telecom>
                  <address>
                     <line value="1002 Healthcare Drive"/>
                     <city value="Ann Arbor"/>
                     <state value="MI"/>
                     <postalCode value="99999"/>
                     <country value="US"/>
                  </address>
               </Organization>
            </resource>
         </entry>
         <entry>
            <fullUrl value="urn:uuid:33fbf9a5-53df-4d41-a476-d40b25692aba"/>
            <resource>
               <Location>
                  <meta>
                     <profile value="http://hl7.org/fhir/us/ecr/StructureDefinition/eicr-location"/>
                     <!--CDA participant: ClinicalDocument[templateId/@root='2.16.840.1.113883.10.20.15.2'][templateId/@extension='2021-01-01']/componentOf/encompassingEncounter/location-->
                  </meta>
                  <identifier>
                     <system value="http://hl7.org/fhir/sid/us-npi"/>
                     <value value="77777777777"/>
                  </identifier>
                  <name value="Good Health Hospital"/>
                  <type>
                     <coding>
                        <system value="http://terminology.hl7.org/CodeSystem/v3-RoleCode"/>
                        <code value="OF"/>
                        <display value="Outpatient facility"/>
                     </coding>
                  </type>
                  <telecom>
                     <system value="phone"/>
                     <value value="1+(555)-555-1212"/>
                     <use value="work"/>
                  </telecom>
                  <telecom>
                     <system value="fax"/>
                     <value value="1+(555)-555-3333"/>
                     <use value="work"/>
                  </telecom>
                  <address>
                     <line value="1000 Hospital Lane"/>
                     <city value="Ann Arbor"/>
                     <state value="MI"/>
                     <postalCode value="99999"/>
                     <country value="US"/>
                  </address>
               </Location>
            </resource>
         </entry>
         <entry>
            <fullUrl value="urn:uuid:3ba05a29-8095-4164-878c-f8feac7a82cf"/>
            <resource>
               <Organization>
                  <meta>
                     <profile value="http://hl7.org/fhir/us/ecr/StructureDefinition/us-ph-organization"/>
                     <!--CDA participant: ClinicalDocument[templateId/@root='2.16.840.1.113883.10.20.15.2'][templateId/@extension='2021-01-01']/componentOf/encompassingEncounter/location/healthCareFacility/serviceProviderOrganization-->
                  </meta>
                  <identifier>
                     <system value="urn:ietf:rfc:3986"/>
                     <value value="urn:uuid:3ba05a29-8095-4164-878c-f8feac7a82cf"/>
                  </identifier>
                  <active value="true"/>
                  <name value="Good Health Hospital"/>
                  <telecom>
                     <system value="phone"/>
                     <value value="1+(555)-555-1212"/>
                     <use value="work"/>
                  </telecom>
                  <telecom>
                     <system value="fax"/>
                     <value value="1+(555)-555-3333"/>
                     <use value="work"/>
                  </telecom>
                  <address>
                     <line value="1000 Hospital Lane"/>
                     <city value="Ann Arbor"/>
                     <state value="MI"/>
                     <postalCode value="99999"/>
                     <country value="US"/>
                  </address>
               </Organization>
            </resource>
         </entry>
         <entry>
            <fullUrl value="urn:uuid:75b7db5b-9f3c-4faa-b8a0-dae37de53763"/>
            <resource>
               <Location><!--cda:assignedAuthor[cda:assignedAuthoringDevice]-->
                  <telecom>
                     <system value="phone"/>
                     <value value="+1-(555)555-1212;ext=9998"/>
                     <use value="work"/>
                  </telecom>
                  <address>
                     <line value="1002 Healthcare Drive"/>
                     <city value="Ann Arbor"/>
                     <state value="MI"/>
                     <postalCode value="99999"/>
                     <country value="US"/>
                  </address>
               </Location>
            </resource>
         </entry>
         <entry>
            <fullUrl value="urn:uuid:1da65424-3533-495e-9146-da85dde97e4c"/>
            <resource>
               <Device>
                  <identifier>
                     <system value="urn:ietf:rfc:3986"/>
                     <value value="urn:oid:2.16.840.1.113883.3.72.5.20"/>
                  </identifier>
                  <!--cda:assignedAuthoringDevice-->
                  <modelNumber value="Acme"/>
                  <version>
                     <value value="NI"/>
                  </version>
                  <location>
                     <reference value="urn:uuid:75b7db5b-9f3c-4faa-b8a0-dae37de53763"/>
                  </location>
               </Device>
            </resource>
         </entry>
         <entry>
            <fullUrl value="urn:uuid:3854d680-2e72-4750-9a54-2424709d7cdc"/>
            <resource>
               <PractitionerRole>
                  <meta>
                     <profile value="http://hl7.org/fhir/us/ecr/StructureDefinition/us-ph-practitionerrole"/>
                  </meta>
                  <!--author/assignedAuthor-->
                  <identifier>
                     <system value="urn:ietf:rfc:3986"/>
                     <value value="urn:uuid:ec399842-7c0d-4cfc-ada3-f11a799d0460"/>
                  </identifier>
                  <practitioner>
                     <reference value="urn:uuid:d8fc42d2-858d-4f90-9a83-f891ad5e758d"/>
                  </practitioner>
                  <organization>
                     <reference value="urn:uuid:71f229b2-655a-47bb-b7ee-256a22f9a3bb"/>
                  </organization>
                  <code>
                     <coding>
                        <system value="http://nucc.org/provider-taxonomy"/>
                        <code value="183500000X"/>
                        <display value="Pharmacist"/>
                     </coding>
                  </code>
                  <telecom>
                     <system value="phone"/>
                     <value value="+1(555)555-1004"/>
                     <use value="work"/>
                  </telecom>
               </PractitionerRole>
            </resource>
         </entry>
         <entry>
            <fullUrl value="urn:uuid:d8fc42d2-858d-4f90-9a83-f891ad5e758d"/>
            <resource>
               <Practitioner><!--assignedAuthor[cda:id[@root="ec399842-7c0d-4cfc-ada3-f11a799d0460"]]/assignedPerson-->
                  <meta>
                     <profile value="http://hl7.org/fhir/us/core/StructureDefinition/us-core-practitioner"/>
                  </meta>
                  <text>
                     <status value="generated"/>
                     <div xmlns="http://www.w3.org/1999/xhtml">
                        <p>Name: Pharmacist, Registered</p>
                        <p>---TODO: ID info---</p>
                        <p>Telephone: tel:+1(555)555-1004</p>
                     </div>
                  </text>
                  <identifier>
                     <system value="urn:ietf:rfc:3986"/>
                     <value value="urn:uuid:ec399842-7c0d-4cfc-ada3-f11a799d0460"/>
                  </identifier>
                  <name>
                     <text value="Pharmacist, RPh, Registered"/>
                     <family value="Pharmacist"/>
                     <given value="Registered"/>
                     <suffix value="RPh"/>
                  </name>
                  <telecom>
                     <system value="phone"/>
                     <value value="+1(555)555-1004"/>
                     <use value="work"/>
                  </telecom>
                  <address>
                     <line value="1004 Pharmacy Drive"/>
                     <city value="Portland"/>
                     <state value="OR"/>
                     <postalCode value="99123"/>
                     <country value="US"/>
                  </address>
               </Practitioner>
            </resource>
         </entry>
         <entry>
            <fullUrl value="urn:uuid:71f229b2-655a-47bb-b7ee-256a22f9a3bb"/>
            <resource>
               <Organization>
                  <meta>
                     <profile value="http://hl7.org/fhir/us/ecr/StructureDefinition/us-ph-organization"/>
                     <!--CDA participant: ClinicalDocument[templateId/@root='2.16.840.1.113883.10.20.15.2'][templateId/@extension='2021-01-01']/author/assignedAuthor/representedOrganization-->
                     <profile value="http://hl7.org/fhir/us/ecr/StructureDefinition/us-ph-organization"/>
                     <!--CDA participant: ClinicalDocument[templateId/@root='2.16.840.1.113883.10.20.15.2'][templateId/@extension='2021-01-01']/author/assignedAuthor/representedOrganization-->
                  </meta>
                  <identifier>
                     <system value="urn:ietf:rfc:3986"/>
                     <value value="urn:oid:2.16.840.1.113883.19.5"/>
                  </identifier>
                  <active value="true"/>
                  <name value="The Pharmacy Alliance Health Group"/>
                  <telecom>
                     <system value="phone"/>
                     <value value="+1(555)555-1004"/>
                     <use value="work"/>
                  </telecom>
                  <address>
                     <line value="1004 Pharmacy Drive"/>
                     <city value="Portland"/>
                     <state value="OR"/>
                     <postalCode value="99123"/>
                     <country value="US"/>
                  </address>
               </Organization>
            </resource>
         </entry>
         <entry>
            <fullUrl value="urn:uuid:9a424bbf-0162-4d73-8a7b-58af453741cd"/>
            <resource>
               <Organization>
                  <meta>
                     <profile value="http://hl7.org/fhir/us/ecr/StructureDefinition/us-ph-organization"/>
                     <!--CDA participant: ClinicalDocument[templateId/@root='2.16.840.1.113883.10.20.15.2'][templateId/@extension='2021-01-01']/custodian/assignedCustodian/representedCustodianOrganization-->
                  </meta>
                  <identifier>
                     <system value="http://hl7.org/fhir/sid/us-npi"/>
                     <value value="88888888"/>
                  </identifier>
                  <active value="true"/>
                  <name value="Good Health Hospital"/>
                  <telecom>
                     <system value="phone"/>
                     <value value="+1(555)555-1212"/>
                     <use value="work"/>
                  </telecom>
                  <address>
                     <line value="1000 Hospital Lane"/>
                     <city value="Ann Arbor"/>
                     <state value="MI"/>
                     <postalCode value="99999"/>
                     <country value="US"/>
                  </address>
               </Organization>
            </resource>
         </entry>
         <entry>
            <fullUrl value="urn:uuid:c3e209db-2cb9-4144-aefa-5925a56e7589"/>
            <resource>
               <MedicationRequest>
                  <meta>
                     <profile value="http://hl7.org/fhir/us/core/StructureDefinition/us-core-medicationrequest"/>
                  </meta>
                  <identifier>
                     <system value="urn:ietf:rfc:3986"/>
                     <value value="urn:uuid:cdbd33f0-6cde-11db-9fe1-0800200c9a67"/>
                  </identifier>
                  <status value="active"/>
                  <intent value="order"/>
                  <medicationCodeableConcept>
                     <coding>
                        <system value="http://www.nlm.nih.gov/research/umls/rxnorm"/>
                        <code value="832679"/>
                        <display value="Bacillus anthracis strain V770-NP1-R antigens 0.1 MG/ML Injectable"/>
                     </coding>
                  </medicationCodeableConcept>
                  <subject>
                     <reference value="urn:uuid:69eb049b-1361-4348-906c-de1abbe21a53"/>
                  </subject>
                  <authoredOn value="2020-11-07T09:44:21.000-05:00"/>
                  <requester>
                     <reference value="urn:uuid:0ac57f55-34af-4230-9810-37270aa23efc"/>
                  </requester>
                  <dosageInstruction/>
               </MedicationRequest>
            </resource>
         </entry>
         <entry>
            <fullUrl value="urn:uuid:62693f4b-9eea-4f85-97a9-aa3f0d4f1b27"/>
            <resource>
               <ServiceRequest>
                  <meta>
                     <profile value="http://hl7.org/fhir/us/ecr/StructureDefinition/eicr-servicerequest"/>
                  </meta>
                  <identifier>
                     <system value="urn:ietf:rfc:3986"/>
                     <value value="urn:uuid:b52bee94-c34b-4e2c-8c15-5ad9d6def205"/>
                  </identifier>
                  <status value="active"/>
                  <intent value="order"/>
                  <code>
                     <coding>
                        <system value="http://loinc.org"/>
                        <code value="80825-3"/>
                        <display value="Zika virus envelope (E) gene [Presence] in Serum by Probe and target amplification method"/>
                     </coding>
                  </code>
                  <subject>
                     <reference value="urn:uuid:69eb049b-1361-4348-906c-de1abbe21a53"/>
                  </subject>
                  <occurrenceDateTime value="2020-11-08"/>
               </ServiceRequest>
            </resource>
         </entry>
         <entry>
            <fullUrl value="urn:uuid:27f3aad8-3a16-4e53-9d15-8163ed91fe7d"/>
            <resource>
               <ServiceRequest>
                  <meta>
                     <profile value="http://hl7.org/fhir/us/ecr/StructureDefinition/eicr-servicerequest"/>
                  </meta>
                  <identifier>
                     <system value="urn:ietf:rfc:3986"/>
                     <value value="urn:uuid:9a6d1bac-17d3-4195-89c4-1121bc809b5a"/>
                  </identifier>
                  <status value="active"/>
                  <intent value="order"/>
                  <code>
                     <coding>
                        <system value="http://snomed.info/sct"/>
                        <code value="233573008"/>
                        <display value="Extracorporeal membrane oxygenation (procedure)"/>
                     </coding>
                  </code>
                  <subject>
                     <reference value="urn:uuid:69eb049b-1361-4348-906c-de1abbe21a53"/>
                  </subject>
                  <occurrenceDateTime value="2020-11-08"/>
                  <requester>
                     <reference value="urn:uuid:0ac57f55-34af-4230-9810-37270aa23efc"/>
                  </requester>
               </ServiceRequest>
            </resource>
         </entry>
         <entry>
            <fullUrl value="urn:uuid:4982aab1-a22a-4a73-92ba-6810d16a3e37"/>
            <resource>
               <ServiceRequest>
                  <meta>
                     <profile value="http://hl7.org/fhir/us/ecr/StructureDefinition/eicr-servicerequest"/>
                  </meta>
                  <identifier>
                     <system value="urn:ietf:rfc:3986"/>
                     <value value="urn:uuid:7658963e-54da-496f-bf18-dea1dddaa3b0"/>
                  </identifier>
                  <status value="active"/>
                  <intent value="plan"/>
                  <code>
                     <coding>
                        <system value="http://snomed.info/sct"/>
                        <code value="409524006"/>
                        <display value="Airborne precautions (procedure)"/>
                     </coding>
                  </code>
                  <subject>
                     <reference value="urn:uuid:69eb049b-1361-4348-906c-de1abbe21a53"/>
                  </subject>
                  <occurrenceDateTime value="2020-11-08"/>
               </ServiceRequest>
            </resource>
         </entry>
         <entry>
            <fullUrl value="urn:uuid:bdb2bd05-bcf2-44b3-a0c0-73086fdca8ce"/>
            <resource>
               <ServiceRequest>
                  <meta>
                     <profile value="http://hl7.org/fhir/us/ecr/StructureDefinition/eicr-servicerequest"/>
                  </meta>
                  <identifier>
                     <system value="urn:ietf:rfc:3986"/>
                     <value value="urn:uuid:b52bee94-c34b-4e2c-8c15-5ad9d6def204"/>
                  </identifier>
                  <status value="active"/>
                  <intent value="plan"/>
                  <code>
                     <coding>
                        <system value="http://snomed.info/sct"/>
                        <code value="385857005"/>
                        <display value="Ventilator care and adjustment (regime/therapy)"/>
                     </coding>
                  </code>
                  <subject>
                     <reference value="urn:uuid:69eb049b-1361-4348-906c-de1abbe21a53"/>
                  </subject>
                  <occurrenceDateTime value="2020-11-08"/>
               </ServiceRequest>
            </resource>
         </entry>
         <entry>
            <fullUrl value="urn:uuid:5d8156ef-9a7d-422f-937e-bd3e451ba6d6"/>
            <resource>
               <ServiceRequest>
                  <meta>
                     <profile value="http://hl7.org/fhir/us/ecr/StructureDefinition/eicr-servicerequest"/>
                  </meta>
                  <identifier>
                     <system value="urn:ietf:rfc:3986"/>
                     <value value="urn:uuid:b52bee94-c34b-4e2c-8c15-5ad9d6def202"/>
                  </identifier>
                  <status value="active"/>
                  <intent value="plan"/>
                  <code>
                     <coding>
                        <system value="http://snomed.info/sct"/>
                        <code value="363680008"/>
                        <display value="Radiographic imaging procedure (procedure)"/>
                     </coding>
                  </code>
                  <subject>
                     <reference value="urn:uuid:69eb049b-1361-4348-906c-de1abbe21a53"/>
                  </subject>
                  <occurrenceDateTime value="2020-11-08"/>
               </ServiceRequest>
            </resource>
         </entry>
         <entry>
            <fullUrl value="urn:uuid:baa69f74-8dd2-4509-b55b-d533a589fcce"/>
            <resource>
               <Condition>
                  <meta>
                     <profile value="http://hl7.org/fhir/us/ecr/StructureDefinition/us-ph-condition"/>
                  </meta>
                  <identifier>
                     <system value="urn:ietf:rfc:3986"/>
                     <value value="urn:uuid:db734647-fc99-424c-a864-7e3cda82e705"/>
                  </identifier>
                  <clinicalStatus>
                     <coding>
                        <system value="http://terminology.hl7.org/CodeSystem/condition-clinical"/>
                        <code value="resolved"/>
                     </coding>
                  </clinicalStatus>
                  <category>
                     <coding>
                        <system value="http://terminology.hl7.org/CodeSystem/condition-category"/>
                        <code value="encounter-diagnosis"/>
                     </coding>
                  </category>
                  <code>
                     <coding>
                        <system value="http://snomed.info/sct"/>
                        <code value="27836007"/>
                        <display value="Pertussis (disorder)"/>
                     </coding>
                  </code>
                  <subject>
                     <reference value="urn:uuid:69eb049b-1361-4348-906c-de1abbe21a53"/>
                  </subject>
                  <onsetDateTime value="2020-11-07"/>
                  <asserter>
                     <reference value="urn:uuid:0ac57f55-34af-4230-9810-37270aa23efc"/>
                  </asserter>
               </Condition>
            </resource>
         </entry>
         <entry>
            <fullUrl value="urn:uuid:d12440f3-51fa-4f54-9d78-08bded9bb42e"/>
            <resource>
               <Condition>
                  <meta>
                     <profile value="http://hl7.org/fhir/us/ecr/StructureDefinition/us-ph-condition"/>
                  </meta>
                  <identifier>
                     <system value="urn:ietf:rfc:3986"/>
                     <value value="urn:uuid:db734647-fc99-424c-a864-7e3cda82e704"/>
                  </identifier>
                  <clinicalStatus>
                     <coding>
                        <system value="http://terminology.hl7.org/CodeSystem/condition-clinical"/>
                        <code value="resolved"/>
                     </coding>
                  </clinicalStatus>
                  <category>
                     <coding>
                        <system value="http://terminology.hl7.org/CodeSystem/condition-category"/>
                        <code value="encounter-diagnosis"/>
                     </coding>
                  </category>
                  <code>
                     <coding>
                        <system value="http://snomed.info/sct"/>
                        <code value="282291009"/>
                        <display value="A non-trigger code diagnosis (disorder)"/>
                     </coding>
                  </code>
                  <subject>
                     <reference value="urn:uuid:69eb049b-1361-4348-906c-de1abbe21a53"/>
                  </subject>
                  <onsetDateTime value="2020-11-07"/>
                  <asserter>
                     <reference value="urn:uuid:0ac57f55-34af-4230-9810-37270aa23efc"/>
                  </asserter>
               </Condition>
            </resource>
         </entry>
         <entry>
            <fullUrl value="urn:uuid:e2aea484-e178-4cac-9703-d7fc121653b7"/>
            <resource>
               <MedicationAdministration><!--No profiles found for any of the following templates: urn:hl7ii:2.16.840.1.113883.10.20.22.4.16urn:hl7ii:2.16.840.1.113883.10.20.22.4.16:2014-06-09-->
                  <extension url="http://hl7.org/fhir/us/ecr/StructureDefinition/therapeutic-medication-response-extension">
                     <valueCodeableConcept>
                        <coding>
                           <system value="http://snomed.info/sct"/>
                           <code value="268910001"/>
                           <display value="Patient's condition improved (finding)"/>
                        </coding>
                     </valueCodeableConcept>
                  </extension>
                  <identifier>
                     <system value="urn:ietf:rfc:3986"/>
                     <value value="urn:uuid:6c844c75-aa34-411c-b7bd-5e4a9f206e29"/>
                  </identifier>
                  <status value="completed"/>
                  <medicationCodeableConcept>
                     <coding>
                        <system value="http://www.nlm.nih.gov/research/umls/rxnorm"/>
                        <code value="248656"/>
                        <display value="Azithromycin 500 MG Oral Tablet"/>
                     </coding>
                  </medicationCodeableConcept>
                  <subject>
                     <reference value="urn:uuid:69eb049b-1361-4348-906c-de1abbe21a53"/>
                  </subject>
                  <effectiveDateTime value="2020-11-07T11:15:00.000-07:00"/>
                  <performer>
                     <actor>
                        <reference value="urn:uuid:0ac57f55-34af-4230-9810-37270aa23efc"/>
                     </actor>
                  </performer>
                  <dosage>
                     <route>
                        <coding>
                           <system value="http://ncimeta.nci.nih.gov"/>
                           <code value="C38288"/>
                           <display value="ORAL"/>
                        </coding>
                     </route>
                     <dose>
                        <value value="1"/>
                        <unit value="g"/>
                     </dose>
                  </dosage>
               </MedicationAdministration>
            </resource>
         </entry>
         <entry>
            <fullUrl value="urn:uuid:bc2fd79f-c00d-448b-aee4-c6a16b103dc8"/>
            <resource>
               <Condition>
                  <meta>
                     <profile value="http://hl7.org/fhir/us/ecr/StructureDefinition/us-ph-condition"/>
                  </meta>
                  <identifier>
                     <system value="urn:ietf:rfc:3986"/>
                     <value value="urn:uuid:ab1791b0-5c71-11db-b0de-0800200c9a66"/>
                  </identifier>
                  <clinicalStatus>
                     <coding>
                        <system value="http://terminology.hl7.org/CodeSystem/condition-clinical"/>
                        <code value="active"/>
                     </coding>
                  </clinicalStatus>
                  <category>
                     <coding>
                        <system value="http://terminology.hl7.org/CodeSystem/v3-ActClass"/>
                        <code value="CONC"/>
                        <display value="Concern"/>
                     </coding>
                  </category>
                  <code>
                     <coding>
                        <system value="http://snomed.info/sct"/>
                        <code value="35064005"/>
                        <display value="Dark stools (finding)"/>
                     </coding>
                  </code>
                  <subject>
                     <reference value="urn:uuid:69eb049b-1361-4348-906c-de1abbe21a53"/>
                  </subject>
                  <onsetDateTime value="2020-11-01"/>
                  <asserter>
                     <reference value="urn:uuid:0ac57f55-34af-4230-9810-37270aa23efc"/>
                  </asserter>
               </Condition>
            </resource>
         </entry>
         <entry>
            <fullUrl value="urn:uuid:fa8e7fe7-8328-4d32-9da9-e5318a2d0824"/>
            <resource>
               <Condition>
                  <meta>
                     <profile value="http://hl7.org/fhir/us/ecr/StructureDefinition/us-ph-condition"/>
                  </meta>
                  <identifier>
                     <system value="urn:ietf:rfc:3986"/>
                     <value value="urn:uuid:ab1791b0-5c71-11db-b0de-0800200c9a67"/>
                  </identifier>
                  <clinicalStatus>
                     <coding>
                        <system value="http://terminology.hl7.org/CodeSystem/condition-clinical"/>
                        <code value="active"/>
                     </coding>
                  </clinicalStatus>
                  <category>
                     <coding>
                        <system value="http://terminology.hl7.org/CodeSystem/v3-ActClass"/>
                        <code value="CONC"/>
                        <display value="Concern"/>
                     </coding>
                  </category>
                  <code>
                     <coding>
                        <system value="http://snomed.info/sct"/>
                        <code value="43025008"/>
                        <display value="Paroxysmal cough (finding)"/>
                     </coding>
                  </code>
                  <subject>
                     <reference value="urn:uuid:69eb049b-1361-4348-906c-de1abbe21a53"/>
                  </subject>
                  <onsetDateTime value="2020-11-04"/>
                  <asserter>
                     <reference value="urn:uuid:0ac57f55-34af-4230-9810-37270aa23efc"/>
                  </asserter>
               </Condition>
            </resource>
         </entry>
         <entry>
            <fullUrl value="urn:uuid:8dbe8a82-c759-4c30-8c23-45b0220b39f9"/>
            <resource>
               <Condition>
                  <meta>
                     <profile value="http://hl7.org/fhir/us/ecr/StructureDefinition/us-ph-condition"/>
                  </meta>
                  <identifier>
                     <system value="urn:ietf:rfc:3986"/>
                     <value value="urn:uuid:ab1791b0-5c71-11db-b0de-0800200c9a66"/>
                  </identifier>
                  <clinicalStatus>
                     <coding>
                        <system value="http://terminology.hl7.org/CodeSystem/condition-clinical"/>
                        <code value="active"/>
                     </coding>
                  </clinicalStatus>
                  <category>
                     <coding>
                        <system value="http://terminology.hl7.org/CodeSystem/v3-ActClass"/>
                        <code value="CONC"/>
                        <display value="Concern"/>
                     </coding>
                  </category>
                  <code>
                     <coding>
                        <system value="http://snomed.info/sct"/>
                        <code value="35064005"/>
                        <display value="Dark stools (finding)"/>
                     </coding>
                  </code>
                  <subject>
                     <reference value="urn:uuid:69eb049b-1361-4348-906c-de1abbe21a53"/>
                  </subject>
                  <onsetDateTime value="2020-11-01"/>
                  <asserter>
                     <reference value="urn:uuid:0ac57f55-34af-4230-9810-37270aa23efc"/>
                  </asserter>
               </Condition>
            </resource>
         </entry>
         <entry>
            <fullUrl value="urn:uuid:21125d7f-4afa-40ab-8567-9391a12f55d5"/>
            <resource>
               <Condition>
                  <meta>
                     <profile value="http://hl7.org/fhir/us/ecr/StructureDefinition/us-ph-condition"/>
                  </meta>
                  <identifier>
                     <system value="urn:ietf:rfc:3986"/>
                     <value value="urn:uuid:ab1791b0-5c71-11db-b0de-0800200c9a67"/>
                  </identifier>
                  <clinicalStatus>
                     <coding>
                        <system value="http://terminology.hl7.org/CodeSystem/condition-clinical"/>
                        <code value="active"/>
                     </coding>
                  </clinicalStatus>
                  <category>
                     <coding>
                        <system value="http://terminology.hl7.org/CodeSystem/v3-ActClass"/>
                        <code value="CONC"/>
                        <display value="Concern"/>
                     </coding>
                  </category>
                  <code>
                     <coding>
                        <system value="http://snomed.info/sct"/>
                        <code value="43025008"/>
                        <display value="Paroxysmal cough (finding)"/>
                     </coding>
                  </code>
                  <subject>
                     <reference value="urn:uuid:69eb049b-1361-4348-906c-de1abbe21a53"/>
                  </subject>
                  <onsetDateTime value="2020-11-04"/>
                  <asserter>
                     <reference value="urn:uuid:0ac57f55-34af-4230-9810-37270aa23efc"/>
                  </asserter>
               </Condition>
            </resource>
         </entry>
         <entry>
            <fullUrl value="urn:uuid:1dd0079e-4ae1-4edf-9abc-d80099b931a8"/>
            <resource>
               <Observation>
                  <meta>
                     <profile value="http://hl7.org/fhir/us/core/StructureDefinition/us-core-observation-lab"/>
                     <!--CDA templateId: urn:hl7ii:2.16.840.1.113883.10.20.22.4.1:2015-08-01-->
                  </meta>
                  <identifier>
                     <system value="urn:ietf:rfc:3986"/>
                     <value value="urn:uuid:7d5a02b0-67a4-11db-bd13-0800200c9a66"/>
                  </identifier>
                  <status value="final"/>
                  <category>
                     <coding>
                        <system value="http://terminology.hl7.org/CodeSystem/observation-category"/>
                        <code value="laboratory"/>
                     </coding>
                  </category>
                  <code>
                     <coding>
                        <system value="http://loinc.org"/>
                        <code value="57021-8"/>
                        <display value="CBC W Auto Differential panel in Blood"/>
                     </coding>
                  </code>
                  <subject>
                     <reference value="urn:uuid:69eb049b-1361-4348-906c-de1abbe21a53"/>
                  </subject>
                  <effectivePeriod>
                     <start value="2020-11-07"/>
                     <end value="2020-11-07"/>
                  </effectivePeriod>
                  <performer>
                     <reference value="urn:uuid:0ac57f55-34af-4230-9810-37270aa23efc"/>
                  </performer>
                  <specimen><!--2.16.840.1.113883.10.20.22.4.415:2018-09-01-->
                     <reference value="urn:uuid:96a9c700-6b03-45e8-bcf5-d7fdddd1fc0f"/>
                  </specimen>
                  <hasMember><!--2.16.840.1.113883.10.20.22.4.2--><!--2.16.840.1.113883.10.20.22.4.2:2015-08-01-->
                     <reference value="urn:uuid:785570ca-a739-4858-a210-e30183833c92"/>
                  </hasMember>
                  <hasMember><!--2.16.840.1.113883.10.20.22.4.2--><!--2.16.840.1.113883.10.20.22.4.2:2015-08-01-->
                     <reference value="urn:uuid:b9226c7b-c665-4ae6-a85a-c0c325055c55"/>
                  </hasMember>
               </Observation>
            </resource>
         </entry>
         <entry>
            <fullUrl value="urn:uuid:785570ca-a739-4858-a210-e30183833c92"/>
            <resource>
               <Observation>
                  <meta>
                     <profile value="http://hl7.org/fhir/us/core/StructureDefinition/us-core-observation-lab"/>
                     <!--CDA templateId: urn:hl7ii:2.16.840.1.113883.10.20.22.4.2:2015-08-01-->
                  </meta>
                  <identifier>
                     <system value="urn:ietf:rfc:3986"/>
                     <value value="urn:uuid:7c0704bb-9c40-41b5-9c7d-26b2d59e234f"/>
                  </identifier>
                  <status value="final"/>
                  <category>
                     <coding>
                        <system value="http://terminology.hl7.org/CodeSystem/observation-category"/>
                        <code value="laboratory"/>
                     </coding>
                  </category>
                  <code>
                     <coding>
                        <system value="http://loinc.org"/>
                        <code value="20570-8"/>
                        <display value="Hematocrit"/>
                     </coding>
                  </code>
                  <subject>
                     <reference value="urn:uuid:69eb049b-1361-4348-906c-de1abbe21a53"/>
                  </subject>
                  <effectiveDateTime value="2020-11-07"/>
                  <performer>
                     <reference value="urn:uuid:0ac57f55-34af-4230-9810-37270aa23efc"/>
                  </performer>
                  <valueQuantity>
                     <value value="35.3"/>
                     <unit value="%"/>
                  </valueQuantity>
                  <interpretation>
                     <coding>
                        <system value="http://terminology.hl7.org/CodeSystem/v3-ObservationInterpretation"/>
                        <code value="L"/>
                        <display value="Low"/>
                     </coding>
                  </interpretation>
                  <referenceRange>
                     <low>
                        <value value="34.9"/>
                        <unit value="%"/>
                     </low>
                     <high>
                        <value value="44.5"/>
                        <unit value="%"/>
                     </high>
                     <text value="Low"/>
                  </referenceRange>
               </Observation>
            </resource>
         </entry>
         <entry>
            <fullUrl value="urn:uuid:b9226c7b-c665-4ae6-a85a-c0c325055c55"/>
            <resource>
               <Observation>
                  <meta>
                     <profile value="http://hl7.org/fhir/us/core/StructureDefinition/us-core-observation-lab"/>
                     <!--CDA templateId: urn:hl7ii:2.16.840.1.113883.10.20.22.4.2:2015-08-01-->
                  </meta>
                  <identifier>
                     <system value="urn:ietf:rfc:3986"/>
                     <value value="urn:uuid:7c0704bb-9c40-41b5-9c7d-26b2d59e234g"/>
                  </identifier>
                  <status value="final"/>
                  <category>
                     <coding>
                        <system value="http://terminology.hl7.org/CodeSystem/observation-category"/>
                        <code value="laboratory"/>
                     </coding>
                  </category>
                  <code>
                     <coding>
                        <system value="http://loinc.org"/>
                        <code value="731-0"/>
                        <display value="Lymphocytes [#/​volume] in Blood by Automated count"/>
                     </coding>
                  </code>
                  <subject>
                     <reference value="urn:uuid:69eb049b-1361-4348-906c-de1abbe21a53"/>
                  </subject>
                  <effectiveDateTime value="2020-11-07"/>
                  <performer>
                     <reference value="urn:uuid:0ac57f55-34af-4230-9810-37270aa23efc"/>
                  </performer>
                  <valueQuantity>
                     <value value="5.2"/>
                     <unit value="10*3/uL"/>
                  </valueQuantity>
                  <interpretation>
                     <coding>
                        <system value="http://terminology.hl7.org/CodeSystem/v3-ObservationInterpretation"/>
                        <code value="H"/>
                        <display value="High"/>
                     </coding>
                  </interpretation>
                  <referenceRange>
                     <low>
                        <value value="1.0"/>
                        <unit value="10*3/uL"/>
                     </low>
                     <high>
                        <value value="4.8"/>
                        <unit value="10*3/uL"/>
                     </high>
                  </referenceRange>
               </Observation>
            </resource>
         </entry>
         <entry>
            <fullUrl value="urn:uuid:96a9c700-6b03-45e8-bcf5-d7fdddd1fc0f"/>
            <resource>
               <Specimen><!--No profiles found for any of the following templates: urn:hl7ii:2.16.840.1.113883.10.20.22.4.415:2018-09-01-->
                  <identifier>
                     <system value="urn:ietf:rfc:3986"/>
                     <value value="urn:uuid:44fd0410-6115-4b8e-8ee9-a51b3817df66"/>
                  </identifier>
                  <type>
                     <coding>
                        <system value="http://snomed.info/sct"/>
                        <code value="119297000"/>
                        <display value="Blood specimen (specimen)"/>
                     </coding>
                  </type>
                  <collection>
                     <collectedPeriod>
                        <start value="2020-03-09"/>
                     </collectedPeriod>
                     <bodySite>
                        <coding>
                           <system value="http://snomed.info/sct"/>
                           <code value="368208006"/>
                           <display value="Left upper arm structure (body structure)"/>
                        </coding>
                     </bodySite>
                  </collection>
               </Specimen>
            </resource>
         </entry>
         <entry>
            <fullUrl value="urn:uuid:0f73f037-df01-4f8b-acdb-67524f070448"/>
            <resource>
               <Observation>
                  <meta>
                     <profile value="http://hl7.org/fhir/us/core/StructureDefinition/us-core-observation-lab"/>
                     <!--CDA templateId: urn:hl7ii:2.16.840.1.113883.10.20.22.4.1:2015-08-01-->
                  </meta>
                  <identifier>
                     <system value="urn:ietf:rfc:3986"/>
                     <value value="urn:uuid:a4307cb2-b3b4-4f42-be03-1d9077376f4a"/>
                  </identifier>
                  <status value="final"/>
                  <category>
                     <coding>
                        <system value="http://terminology.hl7.org/CodeSystem/observation-category"/>
                        <code value="laboratory"/>
                     </coding>
                  </category>
                  <code>
                     <coding>
                        <system value="http://loinc.org"/>
                        <code value="11585-7"/>
                        <display value="Bordetella pertussis Ab [Units/volume] in Serum"/>
                     </coding>
                  </code>
                  <subject>
                     <reference value="urn:uuid:69eb049b-1361-4348-906c-de1abbe21a53"/>
                  </subject>
                  <effectivePeriod>
                     <start value="2020-11-07"/>
                     <end value="2020-11-07"/>
                  </effectivePeriod>
                  <performer>
                     <reference value="urn:uuid:0ac57f55-34af-4230-9810-37270aa23efc"/>
                  </performer>
                  <hasMember><!--2.16.840.1.113883.10.20.22.4.2--><!--2.16.840.1.113883.10.20.22.4.2:2015-08-01--><!--2.16.840.1.113883.10.20.15.2.3.2:2019-04-01-->
                     <reference value="urn:uuid:e0a2a2c6-faef-4cf3-88cb-3b4e0fd15c76"/>
                  </hasMember>
               </Observation>
            </resource>
         </entry>
         <entry>
            <fullUrl value="urn:uuid:e0a2a2c6-faef-4cf3-88cb-3b4e0fd15c76"/>
            <resource>
               <Observation>
                  <meta>
                     <profile value="http://hl7.org/fhir/us/core/StructureDefinition/us-core-observation-lab"/>
                     <!--CDA templateId: urn:hl7ii:2.16.840.1.113883.10.20.22.4.2:2015-08-01-->
                  </meta>
                  <identifier>
                     <system value="urn:ietf:rfc:3986"/>
                     <value value="urn:uuid:bf9c0a26-4524-4395-b3ce-100450b9c9ad"/>
                  </identifier>
                  <status value="final"/>
                  <category>
                     <coding>
                        <system value="http://terminology.hl7.org/CodeSystem/observation-category"/>
                        <code value="laboratory"/>
                     </coding>
                  </category>
                  <code>
                     <coding>
                        <system value="http://loinc.org"/>
                        <code value="11585-7"/>
                        <display value="Bordetella pertussis Ab [Units/volume] in Serum"/>
                     </coding>
                  </code>
                  <subject>
                     <reference value="urn:uuid:69eb049b-1361-4348-906c-de1abbe21a53"/>
                  </subject>
                  <effectiveDateTime value="2020-11-07"/>
                  <performer>
                     <reference value="urn:uuid:0ac57f55-34af-4230-9810-37270aa23efc"/>
                  </performer>
                  <valueQuantity>
                     <value value="100"/>
                     <unit value="[iU]/mL"/>
                  </valueQuantity>
                  <interpretation>
                     <coding>
                        <system value="http://terminology.hl7.org/CodeSystem/v3-ObservationInterpretation"/>
                        <code value="H"/>
                        <display value="High"/>
                     </coding>
                  </interpretation>
                  <referenceRange>
                     <high>
                        <value value="45"/>
                        <unit value="[iU]/mL"/>
                     </high>
                  </referenceRange>
               </Observation>
            </resource>
         </entry>
         <entry>
            <fullUrl value="urn:uuid:9a754825-fe81-485f-9d7a-6945ce93996a"/>
            <resource>
               <Observation>
                  <meta>
                     <profile value="http://hl7.org/fhir/us/core/StructureDefinition/us-core-observation-lab"/>
                     <!--CDA templateId: urn:hl7ii:2.16.840.1.113883.10.20.22.4.1:2015-08-01-->
                  </meta>
                  <identifier>
                     <system value="urn:ietf:rfc:3986"/>
                     <value value="urn:uuid:a4307cb2-b3b4-4f42-be03-1d9077376f4b"/>
                  </identifier>
                  <status value="final"/>
                  <category>
                     <coding>
                        <system value="http://terminology.hl7.org/CodeSystem/observation-category"/>
                        <code value="laboratory"/>
                     </coding>
                  </category>
                  <code>
                     <coding>
                        <system value="http://loinc.org"/>
                        <code value="548-8"/>
                        <display value="Bordetella pertussis [Presence] in Throat by Organism specific culture"/>
                     </coding>
                  </code>
                  <subject>
                     <reference value="urn:uuid:69eb049b-1361-4348-906c-de1abbe21a53"/>
                  </subject>
                  <effectivePeriod>
                     <start value="2020-11-07"/>
                     <end value="2020-11-07"/>
                  </effectivePeriod>
                  <performer>
                     <reference value="urn:uuid:0ac57f55-34af-4230-9810-37270aa23efc"/>
                  </performer>
                  <hasMember><!--2.16.840.1.113883.10.20.22.4.2--><!--2.16.840.1.113883.10.20.22.4.2:2015-08-01--><!--2.16.840.1.113883.10.20.15.2.3.2:2019-04-01-->
                     <reference value="urn:uuid:b791373b-1547-45c3-af7d-5e0beda620c2"/>
                  </hasMember>
               </Observation>
            </resource>
         </entry>
         <entry>
            <fullUrl value="urn:uuid:b791373b-1547-45c3-af7d-5e0beda620c2"/>
            <resource>
               <Observation>
                  <meta>
                     <profile value="http://hl7.org/fhir/us/core/StructureDefinition/us-core-observation-lab"/>
                     <!--CDA templateId: urn:hl7ii:2.16.840.1.113883.10.20.22.4.2:2015-08-01-->
                  </meta>
                  <identifier>
                     <system value="urn:ietf:rfc:3986"/>
                     <value value="urn:uuid:bf9c0a26-4524-4395-b3ce-100450b9c9ac"/>
                  </identifier>
                  <status value="final"/>
                  <category>
                     <coding>
                        <system value="http://terminology.hl7.org/CodeSystem/observation-category"/>
                        <code value="laboratory"/>
                     </coding>
                  </category>
                  <code>
                     <coding>
                        <system value="urn:oid:2.16.840.1.113883.1.2.3.665"/>
                        <code value="local_code_pertussis"/>
                        <display value="Bordetella pertussis in Throat by Organism specific culture"/>
                     </coding>
                     <coding>
                        <system value="http://loinc.org"/>
                        <code value="548-8"/>
                        <display value="Bordetella pertussis [Presence] in Throat by Organism specific culture"/>
                     </coding>
                  </code>
                  <subject>
                     <reference value="urn:uuid:69eb049b-1361-4348-906c-de1abbe21a53"/>
                  </subject>
                  <effectiveDateTime value="2020-11-07"/>
                  <performer>
                     <reference value="urn:uuid:0ac57f55-34af-4230-9810-37270aa23efc"/>
                  </performer>
                  <valueCodeableConcept>
                     <coding>
                        <system value="http://snomed.info/sct"/>
                        <code value="5247005"/>
                        <display value="Bordetella pertussis (organism)"/>
                     </coding>
                  </valueCodeableConcept>
                  <interpretation>
                     <coding>
                        <system value="http://terminology.hl7.org/CodeSystem/v3-ObservationInterpretation"/>
                        <code value="A"/>
                        <display value="Abnormal"/>
                     </coding>
                  </interpretation>
               </Observation>
            </resource>
         </entry>
         <entry>
            <fullUrl value="urn:uuid:25c070b7-52c1-4a27-bfe5-00d1de9bd4ea"/>
            <resource>
               <Procedure><!--No profiles found for any of the following templates: urn:hl7ii:2.16.840.1.113883.10.20.22.4.14:2014-06-09urn:hl7ii:2.16.840.1.113883.10.20.22.4.14-->
                  <identifier>
                     <system value="urn:ietf:rfc:3986"/>
                     <value value="urn:uuid:d68b7e32-7810-4f5b-9cc2-acd54b0fd85d"/>
                  </identifier>
                  <status value="completed"/>
                  <code>
                     <coding>
                        <system value="http://snomed.info/sct"/>
                        <code value="73761001"/>
                        <display value="Colonoscopy"/>
                     </coding>
                  </code>
                  <subject>
                     <reference value="urn:uuid:69eb049b-1361-4348-906c-de1abbe21a53"/>
                  </subject>
                  <performedPeriod>
                     <start value="2020-11-15"/>
                     <end value="2020-11-15"/>
                  </performedPeriod>
                  <asserter>
                     <reference value="urn:uuid:0ac57f55-34af-4230-9810-37270aa23efc"/>
                  </asserter>
               </Procedure>
            </resource>
         </entry>
         <entry>
            <fullUrl value="urn:uuid:d4431526-d8b7-4a99-9050-05250e54c34a"/>
            <resource>
               <Procedure>
                  <meta>
                     <profile value="http://hl7.org/fhir/us/core/StructureDefinition/us-core-procedure"/>
                     <!--CDA templateId: urn:hl7ii:2.16.840.1.113883.10.20.22.4.13:2014-06-09-->
                  </meta>
                  <identifier>
                     <system value="urn:ietf:rfc:3986"/>
                     <value value="urn:uuid:6dab0739-749d-4c62-8f5e-eea77a045ce8"/>
                  </identifier>
                  <status value="completed"/>
                  <code>
                     <coding>
                        <system value="http://snomed.info/sct"/>
                        <code value="274025005"/>
                        <display value="Colonic polypectomy"/>
                     </coding>
                  </code>
                  <subject>
                     <reference value="urn:uuid:69eb049b-1361-4348-906c-de1abbe21a53"/>
                  </subject>
                  <performedPeriod>
                     <start value="2020-11-15"/>
                     <end value="2020-11-15"/>
                  </performedPeriod>
                  <asserter>
                     <reference value="urn:uuid:0ac57f55-34af-4230-9810-37270aa23efc"/>
                  </asserter>
                  <outcome>
                     <coding>
                        <system value="http://terminology.hl7.org/CodeSystem/v3-NullFlavor"/>
                        <code value="NA"/>
                        <display value="Not applicable"/>
                     </coding>
                  </outcome>
               </Procedure>
            </resource>
         </entry>
         <entry>
            <fullUrl value="urn:uuid:810125fb-ff87-4314-b71a-5d3b82c4acbc"/>
            <resource>
               <Procedure><!--No profiles found for any of the following templates: urn:hl7ii:2.16.840.1.113883.10.20.22.4.14:2014-06-09urn:hl7ii:2.16.840.1.113883.10.20.15.2.3.44:2021-01-01-->
                  <identifier>
                     <system value="urn:ietf:rfc:3986"/>
                     <value value="urn:uuid:609a7b3b-3bd1-4e83-b621-c4afe4a90cd7"/>
                  </identifier>
                  <status value="completed"/>
                  <code>
                     <coding>
                        <system value="http://snomed.info/sct"/>
                        <code value="233573008"/>
                        <display value="Extracorporeal membrane oxygenation (procedure)"/>
                     </coding>
                  </code>
                  <subject>
                     <reference value="urn:uuid:69eb049b-1361-4348-906c-de1abbe21a53"/>
                  </subject>
                  <performedPeriod>
                     <start value="2020-11-15"/>
                     <end value="2020-11-15"/>
                  </performedPeriod>
                  <asserter>
                     <reference value="urn:uuid:0ac57f55-34af-4230-9810-37270aa23efc"/>
                  </asserter>
               </Procedure>
            </resource>
         </entry>
         <entry>
            <fullUrl value="urn:uuid:9d1cfe1c-5c96-45df-b9f8-ecb187a00e72"/>
            <resource>
               <Procedure><!--No profiles found for any of the following templates: urn:hl7ii:2.16.840.1.113883.10.20.22.4.12:2014-06-09urn:hl7ii:2.16.840.1.113883.10.20.15.2.3.45:2021-01-01-->
                  <identifier>
                     <system value="urn:ietf:rfc:3986"/>
                     <value value="urn:uuid:941aee94-1f69-4fa8-91c8-7eee00915728"/>
                  </identifier>
                  <status value="completed"/>
                  <code>
                     <coding>
                        <system value="http://snomed.info/sct"/>
                        <code value="409524006"/>
                        <display value="Airborn precautions (procedure)"/>
                     </coding>
                  </code>
                  <subject>
                     <reference value="urn:uuid:69eb049b-1361-4348-906c-de1abbe21a53"/>
                  </subject>
                  <performedPeriod>
                     <start value="2020-11-15"/>
                     <end value="2020-11-15"/>
                  </performedPeriod>
                  <asserter>
                     <reference value="urn:uuid:0ac57f55-34af-4230-9810-37270aa23efc"/>
                  </asserter>
               </Procedure>
            </resource>
         </entry>
         <entry>
            <fullUrl value="urn:uuid:af577d7f-d082-48ec-9faa-56c6ee05bf5e"/>
            <resource>
               <Procedure>
                  <meta>
                     <profile value="http://hl7.org/fhir/us/core/StructureDefinition/us-core-procedure"/>
                     <!--CDA templateId: urn:hl7ii:2.16.840.1.113883.10.20.22.4.13:2014-06-09-->
                  </meta>
                  <identifier>
                     <system value="urn:ietf:rfc:3986"/>
                     <value value="urn:uuid:e535eb92-829f-45bb-8602-a49f59bb4e2c"/>
                  </identifier>
                  <status value="completed"/>
                  <code>
                     <coding>
                        <system value="http://snomed.info/sct"/>
                        <code value="385857005"/>
                        <display value="Ventilator care and adjustment (regime/therapy)"/>
                     </coding>
                  </code>
                  <subject>
                     <reference value="urn:uuid:69eb049b-1361-4348-906c-de1abbe21a53"/>
                  </subject>
                  <performedPeriod>
                     <start value="2020-11-15"/>
                     <end value="2020-11-15"/>
                  </performedPeriod>
                  <asserter>
                     <reference value="urn:uuid:0ac57f55-34af-4230-9810-37270aa23efc"/>
                  </asserter>
                  <outcome>
                     <coding>
                        <system value="http://terminology.hl7.org/CodeSystem/v3-NullFlavor"/>
                        <code value="NA"/>
                        <display value="Not applicable"/>
                     </coding>
                  </outcome>
               </Procedure>
            </resource>
         </entry>
         <entry>
            <fullUrl value="urn:uuid:fafb8f66-0447-4bf9-a4fc-b1d505e94044"/>
            <resource>
               <Immunization>
                  <meta>
                     <profile value="http://hl7.org/fhir/us/core/StructureDefinition/us-core-immunization"/>
                     <!--CDA templateId: urn:hl7ii:2.16.840.1.113883.10.20.22.4.52:2015-08-01-->
                  </meta>
                  <identifier>
                     <system value="urn:uuid:00000000-5CF3-EC63-0513-4A4838595787"/>
                     <value value="11369-6_3-1_1.3.6.1.4.1.22812.11.2016.163.1_14168"/>
                  </identifier>
                  <status value="completed"/>
                  <vaccineCode>
                     <coding>
                        <system value="http://hl7.org/fhir/sid/cvx"/>
                        <code value="106"/>
                        <display value="diphtheria, tetanus toxoids and acellular pertussis vaccine, 5 pertussis antigens"/>
                     </coding>
                  </vaccineCode>
                  <patient>
                     <reference value="urn:uuid:69eb049b-1361-4348-906c-de1abbe21a53"/>
                  </patient>
                  <occurrenceDateTime value="2020-11-07"/>
                  <!--Defaulting primarySource to false since this info is not in the C-CDA Immunization Activity template-->
                  <primarySource value="false"/>
                  <route>
                     <coding>
                        <system value="http://ncimeta.nci.nih.gov"/>
                        <code value="C38288"/>
                        <display value="ORAL"/>
                     </coding>
                  </route>
                  <doseQuantity>
                     <value value="1"/>
                     <unit value="g"/>
                  </doseQuantity>
               </Immunization>
            </resource>
         </entry>
         <entry>
            <fullUrl value="urn:uuid:0dede32f-eb40-4951-b591-3c9674fa6f3e"/>
            <resource>
               <Immunization>
                  <meta>
                     <profile value="http://hl7.org/fhir/us/core/StructureDefinition/us-core-immunization"/>
                     <!--CDA templateId: urn:hl7ii:2.16.840.1.113883.10.20.22.4.52:2015-08-01-->
                  </meta>
                  <identifier>
                     <system value="urn:uuid:00000000-5CF3-EC63-0513-4A4838595787"/>
                     <value value="11369-6_2-1_1.3.6.1.4.1.22812.11.2016.163.1_14168"/>
                  </identifier>
                  <status value="completed"/>
                  <vaccineCode>
                     <coding>
                        <system value="http://hl7.org/fhir/sid/cvx"/>
                        <code value="24"/>
                        <display value="anthrax vaccine"/>
                     </coding>
                  </vaccineCode>
                  <patient>
                     <reference value="urn:uuid:69eb049b-1361-4348-906c-de1abbe21a53"/>
                  </patient>
                  <occurrenceDateTime value="2020-11-07"/>
                  <!--Defaulting primarySource to false since this info is not in the C-CDA Immunization Activity template-->
                  <primarySource value="false"/>
                  <route>
                     <coding>
                        <system value="http://terminology.hl7.org/CodeSystem/v3-NullFlavor"/>
                        <code value="NI"/>
                        <display value="NoInformation"/>
                     </coding>
                  </route>
               </Immunization>
            </resource>
         </entry>
         <entry>
            <fullUrl value="urn:uuid:aae469dd-30d7-49a1-97b2-1f55798a0692"/>
            <resource>
               <Observation><!--Processing as generic observation: 2.16.840.1.113883.10.20.15.2.3.55:--><!--No profiles found for any of the following templates: urn:hl7ii:2.16.840.1.113883.10.20.15.2.3.55:2021-01-01-->
                  <identifier>
                     <system value="urn:ietf:rfc:3986"/>
                     <value value="urn:uuid:3adc7f4d-ff0a-4b38-9252-bd65edbe3dff"/>
                  </identifier>
                  <status value="final"/>
                  <code>
                     <coding>
                        <system value="http://loinc.org"/>
                        <code value="11370-4"/>
                        <display value="Immunization status - Reported"/>
                     </coding>
                  </code>
                  <subject>
                     <reference value="urn:uuid:69eb049b-1361-4348-906c-de1abbe21a53"/>
                  </subject>
                  <effectiveDateTime value="2020-11-07"/>
                  <!--Using document effective time as issued date-->
                  <issued value="2020-11-07T09:44:21.000-05:00"/>
                  <performer/>
                  <valueCodeableConcept>
                     <coding>
                        <system value="urn:oid:2.16.840.1.113883.12.136"/>
                        <code value="Y"/>
                        <display value="Yes"/>
                     </coding>
                  </valueCodeableConcept>
               </Observation>
            </resource>
         </entry>
         <entry>
            <fullUrl value="urn:uuid:30ba6e1f-2bf2-45f5-85ba-798ac1c7c1c9"/>
            <resource>
               <Observation><!--Characteristics of Home Environment-->
                  <meta>
                     <profile value="http://hl7.org/fhir/us/ecr/StructureDefinition/characteristics-of-home-environment"/>
                     <!--CDA templateId: urn:hl7ii:2.16.840.1.113883.10.20.22.4.109-->
                     <profile value="http://hl7.org/fhir/us/ecr/StructureDefinition/us-ph-characteristics-of-home-environment"/>
                     <!--CDA templateId: urn:hl7ii:2.16.840.1.113883.10.20.22.4.109-->
                  </meta>
                  <identifier>
                     <system value="urn:ietf:rfc:3986"/>
                     <value value="urn:uuid:37f76c51-6411-4e1d-8a37-957fd49d2ced"/>
                  </identifier>
                  <status value="final"/>
                  <code>
                     <coding>
                        <system value="http://loinc.org"/>
                        <code value="75274-1"/>
                        <display value="Characteristics of residence"/>
                     </coding>
                  </code>
                  <subject>
                     <reference value="urn:uuid:69eb049b-1361-4348-906c-de1abbe21a53"/>
                  </subject>
                  <effectiveDateTime value="2020-11-09"/>
                  <performer/>
                  <valueCodeableConcept>
                     <coding>
                        <system value="http://snomed.info/sct"/>
                        <code value="32911000"/>
                        <display value="Homeless (finding)"/>
                     </coding>
                  </valueCodeableConcept>
               </Observation>
            </resource>
         </entry>
         <entry>
            <fullUrl value="urn:uuid:5ec775a9-36b4-4ea6-b062-323ca6655d2b"/>
            <resource>
               <Observation><!--Processing as generic observation: 2.16.840.1.113883.10.20.15.2.3.52:-->
                  <meta>
                     <profile value="http://hl7.org/fhir/us/ecr/StructureDefinition/us-ph-exposure-contact-information"/>
                     <!--CDA templateId: urn:hl7ii:2.16.840.1.113883.10.20.15.2.3.52:2021-01-01-->
                  </meta>
                  <identifier>
                     <system value="urn:ietf:rfc:3986"/>
                     <value value="urn:uuid:5f2e0ab0-b505-438a-9d50-f22d78ad1567"/>
                  </identifier>
                  <status value="final"/>
                  <category>
                     <coding>
                        <system value="http://terminology.hl7.org/CodeSystem/v3-ActClass"/>
                        <code value="EXPOS"/>
                        <display value="exposure"/>
                     </coding>
                     <text value="An interaction between entities that provides opportunity for transmission of a physical, chemical, or biological agent from an exposure source entity to an exposure target entity."/>
                  </category>
                  <code>
                     <coding>
                        <system value="http://loinc.org"/>
                        <code value="C3841750"/>
                        <display value="Mass gathering"/>
                     </coding>
                     <text value="Football game"/>
                  </code>
                  <subject>
                     <reference value="urn:uuid:69eb049b-1361-4348-906c-de1abbe21a53"/>
                  </subject>
                  <effectivePeriod>
                     <start value="2020-11-10T18:00:00+10:00"/>
                     <end value="2020-11-10T21:30:00+10:00"/>
                  </effectivePeriod>
                  <!--Using document effective time as issued date-->
                  <issued value="2020-11-07T09:44:21.000-05:00"/>
                  <performer/>
                  <valueCodeableConcept>
                     <coding>
                        <system value="http://snomed.info/sct"/>
                        <code value="264379009"/>
                        <display value="Sports stadium (environment)"/>
                     </coding>
                     <text value="City Football Stadium"/>
                  </valueCodeableConcept>
               </Observation>
            </resource>
         </entry>
         <entry>
            <fullUrl value="urn:uuid:6f1b5c7b-31bb-413b-b6cf-c9dbaf961c8b"/>
            <resource>
               <Observation><!--Processing as generic observation: 2.16.840.1.113883.10.20.15.2.3.52:-->
                  <meta>
                     <profile value="http://hl7.org/fhir/us/ecr/StructureDefinition/us-ph-exposure-contact-information"/>
                     <!--CDA templateId: urn:hl7ii:2.16.840.1.113883.10.20.15.2.3.52:2021-01-01-->
                  </meta>
                  <identifier>
                     <system value="urn:ietf:rfc:3986"/>
                     <value value="urn:uuid:a78adeed-d623-49cb-95df-42a0a2c33fca"/>
                  </identifier>
                  <status value="final"/>
                  <category>
                     <coding>
                        <system value="http://terminology.hl7.org/CodeSystem/v3-ActClass"/>
                        <code value="EXPOS"/>
                        <display value="exposure"/>
                     </coding>
                     <text value="An interaction between entities that provides opportunity for transmission of a physical, chemical, or biological agent from an exposure source entity to an exposure target entity."/>
                  </category>
                  <code>
                     <coding>
                        <system value="urn:oid:2.16.840.1.114222.4.5.274"/>
                        <code value="PHC2266"/>
                        <display value="Animal with confirmed or suspected case"/>
                     </coding>
                  </code>
                  <subject>
                     <reference value="urn:uuid:69eb049b-1361-4348-906c-de1abbe21a53"/>
                  </subject>
                  <effectivePeriod>
                     <start value="2020-11-09"/>
                     <end value="2020-11-13"/>
                  </effectivePeriod>
                  <!--Using document effective time as issued date-->
                  <issued value="2020-11-07T09:44:21.000-05:00"/>
                  <performer/>
               </Observation>
            </resource>
         </entry>
         <entry>
            <fullUrl value="urn:uuid:6003e709-809b-4242-accb-24f797fede3e"/>
            <resource>
               <Observation><!--Processing as generic observation: 2.16.840.1.113883.10.20.15.2.3.52:-->
                  <meta>
                     <profile value="http://hl7.org/fhir/us/ecr/StructureDefinition/us-ph-exposure-contact-information"/>
                     <!--CDA templateId: urn:hl7ii:2.16.840.1.113883.10.20.15.2.3.52:2021-01-01-->
                  </meta>
                  <identifier>
                     <system value="urn:ietf:rfc:3986"/>
                     <value value="urn:uuid:a78adeed-d623-49cb-95df-42a0a2c33fca"/>
                  </identifier>
                  <status value="final"/>
                  <category>
                     <coding>
                        <system value="http://terminology.hl7.org/CodeSystem/v3-ActClass"/>
                        <code value="EXPOS"/>
                        <display value="exposure"/>
                     </coding>
                     <text value="An interaction between entities that provides opportunity for transmission of a physical, chemical, or biological agent from an exposure source entity to an exposure target entity."/>
                  </category>
                  <code>
                     <coding>
                        <system value="urn:oid:2.16.840.1.114222.4.5.274"/>
                        <code value="PHC2267"/>
                        <display value="Contact with known case"/>
                     </coding>
                  </code>
                  <subject>
                     <reference value="urn:uuid:69eb049b-1361-4348-906c-de1abbe21a53"/>
                  </subject>
                  <effectivePeriod>
                     <start value="2020-11-09"/>
                     <end value="2020-11-13"/>
                  </effectivePeriod>
                  <!--Using document effective time as issued date-->
                  <issued value="2020-11-07T09:44:21.000-05:00"/>
                  <performer/>
               </Observation>
            </resource>
         </entry>
         <entry>
            <fullUrl value="urn:uuid:9e8f53c1-0d0a-4a15-8bf9-1809eb764b5d"/>
            <resource>
               <Observation><!--Travel History-->
                  <meta>
                     <profile value="http://hl7.org/fhir/us/ecr/StructureDefinition/us-ph-travel-history"/>
                     <!--CDA templateId: urn:hl7ii:2.16.840.1.113883.10.20.15.2.3.1:2021-01-01-->
                  </meta>
                  <identifier>
                     <system value="urn:ietf:rfc:3986"/>
                     <value value="urn:uuid:79565142-eae0-4213-a3b3-b73cdf474682"/>
                  </identifier>
                  <status value="final"/>
                  <code>
                     <coding>
                        <system value="http://snomed.info/sct"/>
                        <code value="420008001"/>
                        <display value="Travel"/>
                     </coding>
                  </code>
                  <subject>
                     <reference value="urn:uuid:69eb049b-1361-4348-906c-de1abbe21a53"/>
                  </subject>
                  <effectivePeriod>
                     <start value="1999"/>
                     <end value="2007"/>
                  </effectivePeriod>
                  <performer>
                     <reference value="urn:uuid:0ac57f55-34af-4230-9810-37270aa23efc"/>
                  </performer>
                  <component>
                     <code>
                        <coding>
                           <system value="http://terminology.hl7.org/CodeSystem/v3-ParticipationType"/>
                           <code value="LOC"/>
                           <display value="Location"/>
                        </coding>
                     </code>
                     <valueCodeableConcept>
                        <text value="Spent 8 years in the UK during the BSE outbreak"/>
                     </valueCodeableConcept>
                  </component>
               </Observation>
            </resource>
         </entry>
         <entry>
            <fullUrl value="urn:uuid:44b60597-94e2-4689-8498-5e3106b9db30"/>
            <resource>
               <Observation><!--Travel History-->
                  <meta>
                     <profile value="http://hl7.org/fhir/us/ecr/StructureDefinition/us-ph-travel-history"/>
                     <!--CDA templateId: urn:hl7ii:2.16.840.1.113883.10.20.15.2.3.1:2021-01-01-->
                  </meta>
                  <identifier>
                     <system value="urn:ietf:rfc:3986"/>
                     <value value="urn:uuid:030df1dc-1d31-4e5d-abdd-5edd0b74c5c3"/>
                  </identifier>
                  <status value="final"/>
                  <code>
                     <coding>
                        <system value="http://snomed.info/sct"/>
                        <code value="420008001"/>
                        <display value="Travel"/>
                     </coding>
                  </code>
                  <subject>
                     <reference value="urn:uuid:69eb049b-1361-4348-906c-de1abbe21a53"/>
                  </subject>
                  <effectivePeriod>
                     <start value="2020-10-19"/>
                     <end value="2020-11-09"/>
                  </effectivePeriod>
                  <performer>
                     <reference value="urn:uuid:0ac57f55-34af-4230-9810-37270aa23efc"/>
                  </performer>
                  <component>
                     <code>
                        <coding>
                           <system value="http://terminology.hl7.org/CodeSystem/v3-ParticipationType"/>
                           <code value="LOC"/>
                           <display value="Location"/>
                        </coding>
                     </code>
                     <valueCodeableConcept>
                        <coding>
                           <system value="urn:iso:std:iso:3166"/>
                           <code value="BRA"/>
                           <display value="Brazil"/>
                        </coding>
                     </valueCodeableConcept>
                  </component>
               </Observation>
            </resource>
         </entry>
         <entry>
            <fullUrl value="urn:uuid:e1870ca6-91a4-46ec-a88e-cfe50f5d4814"/>
            <resource>
               <Observation><!--Travel History-->
                  <meta>
                     <profile value="http://hl7.org/fhir/us/ecr/StructureDefinition/us-ph-travel-history"/>
                     <!--CDA templateId: urn:hl7ii:2.16.840.1.113883.10.20.15.2.3.1:2021-01-01-->
                  </meta>
                  <identifier>
                     <system value="urn:ietf:rfc:3986"/>
                     <value value="urn:uuid:b98e410c-d29a-46d8-8fc8-f55a9d3022b9"/>
                  </identifier>
                  <status value="final"/>
                  <code>
                     <coding>
                        <system value="http://snomed.info/sct"/>
                        <code value="420008001"/>
                        <display value="Travel"/>
                     </coding>
                  </code>
                  <subject>
                     <reference value="urn:uuid:69eb049b-1361-4348-906c-de1abbe21a53"/>
                  </subject>
                  <effectivePeriod>
                     <start value="2020-04-25"/>
                     <end value="2020-04-30"/>
                  </effectivePeriod>
                  <performer>
                     <reference value="urn:uuid:0ac57f55-34af-4230-9810-37270aa23efc"/>
                  </performer>
                  <component>
                     <extension url="http://hl7.org/fhir/us/ecr/StructureDefinition/travel-history-address-extension">
                        <valueAddress>
                           <city value="Nadi"/>
                           <country value="FJ"/>
                        </valueAddress>
                     </extension>
                     <code>
                        <coding>
                           <system value="http://terminology.hl7.org/CodeSystem/v3-ParticipationType"/>
                           <code value="LOC"/>
                           <display value="Location"/>
                        </coding>
                     </code>
                  </component>
               </Observation>
            </resource>
         </entry>
         <entry>
            <fullUrl value="urn:uuid:abfaa8b3-a601-45f8-90da-d74d2692bc96"/>
            <resource>
               <Observation><!--Travel History-->
                  <meta>
                     <profile value="http://hl7.org/fhir/us/ecr/StructureDefinition/us-ph-travel-history"/>
                     <!--CDA templateId: urn:hl7ii:2.16.840.1.113883.10.20.15.2.3.1:2021-01-01-->
                  </meta>
                  <identifier>
                     <system value="urn:ietf:rfc:3986"/>
                     <value value="urn:uuid:b97346f7-8f9e-4c5b-97bb-df4f6e057fd4"/>
                  </identifier>
                  <status value="final"/>
                  <code>
                     <coding>
                        <system value="http://snomed.info/sct"/>
                        <code value="420008001"/>
                        <display value="Travel"/>
                     </coding>
                  </code>
                  <subject>
                     <reference value="urn:uuid:69eb049b-1361-4348-906c-de1abbe21a53"/>
                  </subject>
                  <effectivePeriod>
                     <start value="2020-05-06"/>
                     <end value="2020-05-15"/>
                  </effectivePeriod>
                  <performer>
                     <reference value="urn:uuid:0ac57f55-34af-4230-9810-37270aa23efc"/>
                  </performer>
                  <component>
                     <extension url="http://hl7.org/fhir/us/ecr/StructureDefinition/travel-history-address-extension">
                        <valueAddress>
                           <city value="Montreal"/>
                           <state value="QC"/>
                           <country value="CA"/>
                        </valueAddress>
                     </extension>
                     <code>
                        <coding>
                           <system value="http://terminology.hl7.org/CodeSystem/v3-ParticipationType"/>
                           <code value="LOC"/>
                           <display value="Location"/>
                        </coding>
                     </code>
                  </component>
               </Observation>
            </resource>
         </entry>
         <entry>
            <fullUrl value="urn:uuid:a58265eb-52c6-4c8e-a7a8-904c0ffe7f7c"/>
            <resource>
               <Observation><!--Travel History-->
                  <meta>
                     <profile value="http://hl7.org/fhir/us/ecr/StructureDefinition/us-ph-travel-history"/>
                     <!--CDA templateId: urn:hl7ii:2.16.840.1.113883.10.20.15.2.3.1:2021-01-01-->
                  </meta>
                  <identifier>
                     <system value="urn:ietf:rfc:3986"/>
                     <value value="urn:uuid:1d957c2a-6133-427d-a6cc-26f132773b86"/>
                  </identifier>
                  <status value="final"/>
                  <code>
                     <coding>
                        <system value="http://snomed.info/sct"/>
                        <code value="420008001"/>
                        <display value="Travel"/>
                     </coding>
                  </code>
                  <subject>
                     <reference value="urn:uuid:69eb049b-1361-4348-906c-de1abbe21a53"/>
                  </subject>
                  <effectivePeriod>
                     <start value="2020-07-13"/>
                     <end value="2020-07-15"/>
                  </effectivePeriod>
                  <performer>
                     <reference value="urn:uuid:0ac57f55-34af-4230-9810-37270aa23efc"/>
                  </performer>
                  <component>
                     <extension url="http://hl7.org/fhir/us/ecr/StructureDefinition/travel-history-address-extension">
                        <valueAddress>
                           <city value="Sydney"/>
                           <state value="NSW"/>
                           <country value="AU"/>
                        </valueAddress>
                     </extension>
                     <code>
                        <coding>
                           <system value="http://terminology.hl7.org/CodeSystem/v3-ParticipationType"/>
                           <code value="LOC"/>
                           <display value="Location"/>
                        </coding>
                     </code>
                  </component>
               </Observation>
            </resource>
         </entry>
         <entry>
            <fullUrl value="urn:uuid:d5131d90-bfcc-4a47-ba5a-11b7918456b1"/>
            <resource>
               <Observation><!--Travel History-->
                  <meta>
                     <profile value="http://hl7.org/fhir/us/ecr/StructureDefinition/us-ph-travel-history"/>
                     <!--CDA templateId: urn:hl7ii:2.16.840.1.113883.10.20.15.2.3.1:2021-01-01-->
                  </meta>
                  <identifier>
                     <system value="urn:ietf:rfc:3986"/>
                     <value value="urn:uuid:45397b5c-e974-4cf1-8b19-e1555bd55701"/>
                  </identifier>
                  <status value="final"/>
                  <code>
                     <coding>
                        <system value="http://snomed.info/sct"/>
                        <code value="420008001"/>
                        <display value="Travel"/>
                     </coding>
                  </code>
                  <subject>
                     <reference value="urn:uuid:69eb049b-1361-4348-906c-de1abbe21a53"/>
                  </subject>
                  <effectivePeriod>
                     <start value="2020-10-22"/>
                     <end value="2020-10-30"/>
                  </effectivePeriod>
                  <performer>
                     <reference value="urn:uuid:0ac57f55-34af-4230-9810-37270aa23efc"/>
                  </performer>
                  <component>
                     <extension url="http://hl7.org/fhir/us/ecr/StructureDefinition/travel-history-address-extension">
                        <valueAddress>
                           <line value="1170 N Rancho Robles Rd"/>
                           <city value="Oracle"/>
                           <state value="AZ"/>
                           <postalCode value="8562"/>
                           <country value="US"/>
                        </valueAddress>
                     </extension>
                     <code>
                        <coding>
                           <system value="http://terminology.hl7.org/CodeSystem/v3-ParticipationType"/>
                           <code value="LOC"/>
                           <display value="Location"/>
                        </coding>
                     </code>
                  </component>
               </Observation>
            </resource>
         </entry>
         <entry>
            <fullUrl value="urn:uuid:3d85bacb-191c-460d-87fe-0c39374bb1a9"/>
            <resource>
               <Observation><!--Processing as generic observation: 2.16.840.1.113883.10.20.15.2.3.53:-->
                  <meta>
                     <profile value="http://hl7.org/fhir/us/ecr/StructureDefinition/eicr-country-of-residence"/>
                     <!--CDA templateId: urn:hl7ii:2.16.840.1.113883.10.20.15.2.3.53:2021-01-01-->
                  </meta>
                  <identifier>
                     <system value="urn:ietf:rfc:3986"/>
                     <value value="urn:uuid:3adc7f4d-ff0a-4b38-9252-bd65edbe3dfg"/>
                  </identifier>
                  <status value="final"/>
                  <code>
                     <coding>
                        <system value="http://loinc.org"/>
                        <code value="77983-5"/>
                        <display value="Country of usual residence"/>
                     </coding>
                  </code>
                  <subject>
                     <reference value="urn:uuid:69eb049b-1361-4348-906c-de1abbe21a53"/>
                  </subject>
                  <!--Using document effective time as issued date-->
                  <issued value="2020-11-07T09:44:21.000-05:00"/>
                  <performer/>
                  <valueCodeableConcept>
                     <coding>
                        <system value="urn:oid:1.0.3166.1.2.2"/>
                        <code value="GB"/>
                        <display value="United Kingdom of Great Britain and Northern Ireland"/>
                     </coding>
                  </valueCodeableConcept>
               </Observation>
            </resource>
         </entry>
         <entry>
            <fullUrl value="urn:uuid:6bcf10fc-6605-4ec0-b4ca-ddb65523169d"/>
            <resource>
               <Observation><!--Processing as generic observation: 2.16.840.1.113883.10.20.15.2.3.54:-->
                  <meta>
                     <profile value="http://hl7.org/fhir/us/ecr/StructureDefinition/eicr-country-of-nationality"/>
                     <!--CDA templateId: urn:hl7ii:2.16.840.1.113883.10.20.15.2.3.54:2021-01-01-->
                  </meta>
                  <identifier>
                     <system value="urn:ietf:rfc:3986"/>
                     <value value="urn:uuid:3adc7f4d-ff0a-4b38-9252-bd65edbe3dfa"/>
                  </identifier>
                  <status value="final"/>
                  <code>
                     <coding>
                        <system value="http://snomed.info/sct"/>
                        <code value="186034007"/>
                        <display value="Ethnicity / related nationality data (observable entity)"/>
                     </coding>
                  </code>
                  <subject>
                     <reference value="urn:uuid:69eb049b-1361-4348-906c-de1abbe21a53"/>
                  </subject>
                  <!--Using document effective time as issued date-->
                  <issued value="2020-11-07T09:44:21.000-05:00"/>
                  <performer/>
                  <valueCodeableConcept>
                     <coding>
                        <system value="urn:oid:1.0.3166.1.2.2"/>
                        <code value="AU"/>
                        <display value="Australia"/>
                     </coding>
                  </valueCodeableConcept>
               </Observation>
            </resource>
         </entry>
         <entry>
            <fullUrl value="urn:uuid:ee20a009-15a1-44aa-bcca-c36164c0eec5"/>
            <resource>
               <Observation><!--Processing as generic observation: 2.16.840.1.113883.10.20.15.2.3.47:-->
                  <meta>
                     <profile value="http://hl7.org/fhir/us/ecr/StructureDefinition/us-ph-disability-status"/>
                     <!--CDA templateId: urn:hl7ii:2.16.840.1.113883.10.20.15.2.3.47:2021-01-01-->
                  </meta>
                  <identifier>
                     <system value="urn:ietf:rfc:3986"/>
                     <value value="urn:uuid:c09ac074-605e-47bd-8b1c-735e7321fbc2"/>
                  </identifier>
                  <status value="final"/>
                  <code>
                     <coding>
                        <system value="http://loinc.org"/>
                        <code value="69856-3"/>
                        <display value="Are you deaf, or do you have serious difficulty hearing [HHS.ACA Section 4302]"/>
                     </coding>
                  </code>
                  <subject>
                     <reference value="urn:uuid:69eb049b-1361-4348-906c-de1abbe21a53"/>
                  </subject>
                  <effectiveDateTime value="2020-11-09"/>
                  <!--Using document effective time as issued date-->
                  <issued value="2020-11-07T09:44:21.000-05:00"/>
                  <performer/>
                  <valueBoolean value="true"/>
               </Observation>
            </resource>
         </entry>
         <entry>
            <fullUrl value="urn:uuid:9789df0a-1437-49bc-b44d-4a5a273c0949"/>
            <resource>
               <Observation><!--Processing as generic observation: 2.16.840.1.113883.10.20.15.2.3.48:--><!--No profiles found for any of the following templates: urn:hl7ii:2.16.840.1.113883.10.20.15.2.3.48:2021-01-01-->
                  <identifier>
                     <system value="urn:ietf:rfc:3986"/>
                     <value value="urn:uuid:cecfb1ba-1e13-47bd-b6ea-5a40f22798a9"/>
                  </identifier>
                  <status value="final"/>
                  <code>
                     <coding>
                        <system value="http://terminology.hl7.org/CodeSystem/v3-TribalEntityUS"/>
                        <code value="91"/>
                        <display value="Fort Mojave Indian Tribe of Arizona, California"/>
                     </coding>
                  </code>
                  <subject>
                     <reference value="urn:uuid:69eb049b-1361-4348-906c-de1abbe21a53"/>
                  </subject>
                  <effectiveDateTime value="2020-11-09"/>
                  <!--Using document effective time as issued date-->
                  <issued value="2020-11-07T09:44:21.000-05:00"/>
                  <performer/>
                  <valueBoolean value="true"/>
               </Observation>
            </resource>
         </entry>
         <entry>
            <fullUrl value="urn:uuid:47bcb8fe-b62d-42b3-9ed7-263c66aa785f"/>
            <resource>
               <Observation><!--ODH Usual Work--><!--No profiles found for any of the following templates: urn:hl7ii:2.16.840.1.113883.10.20.22.4.221:2020-09-01-->
                  <identifier>
                     <system value="urn:ietf:rfc:3986"/>
                     <value value="urn:uuid:4f4b3876-8570-41a0-b995-cf34f37c5cbf"/>
                  </identifier>
                  <status value="final"/>
                  <code>
                     <coding>
                        <system value="http://loinc.org"/>
                        <code value="21843-8"/>
                        <display value="Usual Occupation"/>
                     </coding>
                  </code>
                  <subject>
                     <reference value="urn:uuid:69eb049b-1361-4348-906c-de1abbe21a53"/>
                  </subject>
                  <effectivePeriod>
                     <start value="1996-11-24"/>
                  </effectivePeriod>
                  <performer/>
                  <valueCodeableConcept>
                     <coding>
                        <system value="urn:oid:2.16.840.1.113883.6.240"/>
                        <code value="3600"/>
                        <display value="Nursing, psychiatric, and home health aides"/>
                     </coding>
                     <coding>
                        <system value="urn:oid:2.16.840.1.114222.4.5.327"/>
                        <code value="31-1014.00.007136"/>
                        <display value="Certified Nursing Assistant (CNA) [Nursing Assistants]"/>
                     </coding>
                  </valueCodeableConcept>
                  <component><!---->
                     <code>
                        <coding>
                           <system value="http://loinc.org"/>
                           <code value="21844-6"/>
                           <display value="Usual Industry"/>
                        </coding>
                     </code>
                     <valueCodeableConcept>
                        <coding>
                           <system value="https://phinvads.cdc.gov/vads/ViewCodeSystem.action?id=2.16.840.1.114222.4.5.315"/>
                           <code value="8270"/>
                           <display value="Nursing care facilities"/>
                        </coding>
                        <coding>
                           <system value="urn:oid:2.16.840.1.114222.4.5.327"/>
                           <code value="621610.008495"/>
                           <display value="Home nursing services"/>
                        </coding>
                     </valueCodeableConcept>
                  </component>
               </Observation>
            </resource>
         </entry>
         <entry>
            <fullUrl value="urn:uuid:cf3442da-fd63-437d-bec2-10141dd7de6a"/>
            <resource>
               <Organization>
                  <identifier>
                     <system value="urn:uuid:58822180-ab0d-42e4-90c6-35336bf55654"/>
                     <value value="12345"/>
                  </identifier>
                  <active value="true"/>
                  <name value="University Hospital"/>
                  <telecom>
                     <system value="phone"/>
                     <value value="555-1212"/>
                     <use value="work"/>
                  </telecom>
                  <address>
                     <line value="Peachtree St"/>
                     <city value="Atlanta"/>
                     <state value="Georgia"/>
                  </address>
               </Organization>
            </resource>
         </entry>
         <entry>
            <fullUrl value="urn:uuid:1faae745-c236-428d-ae63-ba833fd0bfca"/>
            <resource>
               <Observation><!--ODH Past or Present Job--><!--No profiles found for any of the following templates: urn:hl7ii:2.16.840.1.113883.10.20.22.4.217:2020-09-01--><!--ohh-Employer-extension-->
                  <extension url="http://hl7.org/fhir/us/odh/StructureDefinition/odh-Employer-extension">
                     <valueReference>
                        <reference value="urn:uuid:cf3442da-fd63-437d-bec2-10141dd7de6a"/>
                     </valueReference>
                  </extension>
                  <identifier>
                     <system value="urn:ietf:rfc:3986"/>
                     <value value="urn:uuid:1728123a-7b6c-418c-adc2-f78417caf62c"/>
                  </identifier>
                  <status value="final"/>
                  <code>
                     <coding>
                        <system value="http://loinc.org"/>
                        <code value="11341-5"/>
                        <display value="History of Occupation"/>
                     </coding>
                  </code>
                  <subject>
                     <reference value="urn:uuid:69eb049b-1361-4348-906c-de1abbe21a53"/>
                  </subject>
                  <effectivePeriod>
                     <start value="2015-04-24"/>
                  </effectivePeriod>
                  <performer/>
                  <valueCodeableConcept>
                     <coding>
                        <system value="urn:oid:2.16.840.1.113883.6.240"/>
                        <code value="3600"/>
                        <display value="Nursing, psychiatric, and home health aides"/>
                     </coding>
                     <coding>
                        <system value="urn:oid:2.16.840.1.114222.4.5.327"/>
                        <code value="31-1014.00.007136"/>
                        <display value="Certified Nursing Assistant (CNA) [Nursing Assistants]"/>
                     </coding>
                  </valueCodeableConcept>
                  <component><!--Observation.component: odh-OccupationalHazard-->
                     <code>
                        <coding>
                           <system value="http://loinc.org"/>
                           <code value="87729-0"/>
                           <display value="History of Occupational hazard"/>
                        </coding>
                     </code>
                     <valueString value="Asbestos"/>
                  </component>
                  <component><!---->
                     <code>
                        <coding>
                           <system value="http://loinc.org"/>
                           <code value="86188-0"/>
                           <display value="Occupation Industry"/>
                        </coding>
                     </code>
                     <valueCodeableConcept>
                        <coding>
                           <system value="https://phinvads.cdc.gov/vads/ViewCodeSystem.action?id=2.16.840.1.114222.4.5.315"/>
                           <code value="8270"/>
                           <display value="Nursing care facilities"/>
                        </coding>
                        <coding>
                           <system value="urn:oid:2.16.840.1.114222.4.5.327"/>
                           <code value="621610.008495"/>
                           <display value="Home nursing services"/>
                        </coding>
                     </valueCodeableConcept>
                  </component>
               </Observation>
            </resource>
         </entry>
         <entry>
            <fullUrl value="urn:uuid:b7323475-db68-4ec3-993d-be82ef1b8f76"/>
            <resource>
               <Observation><!--Pregnancy Status Observation-->
                  <meta>
                     <profile value="http://hl7.org/fhir/us/ecr/StructureDefinition/us-ph-pregnancy-status-observation"/>
                     <!--CDA templateId: urn:hl7ii:2.16.840.1.113883.10.20.22.4.293:2020-04-01-->
                  </meta>
                  <!--Pregnancy Status Recorded Date-->
                  <extension url="http://hl7.org/fhir/us/ecr/StructureDefinition/us-ph-date-recorded-extension">
                     <valueDateTime value="2017-10-01T10:35:00+10:00"/>
                  </extension>
                  <!--Pregnancy Status Determination Date-->
                  <extension url="http://hl7.org/fhir/us/ecr/StructureDefinition/us-ph-date-determined-extension">
                     <valueDateTime value="2017-10-01"/>
                  </extension>
                  <identifier>
                     <system value="urn:ietf:rfc:3986"/>
                     <value value="urn:uuid:bab77407-f76d-4a51-a2ed-980c8a59fe28"/>
                  </identifier>
                  <status value="final"/>
                  <code>
                     <coding>
                        <system value="http://loinc.org"/>
                        <code value="82810-3"/>
                        <display value="Pregnancy Status"/>
                     </coding>
                  </code>
                  <subject>
                     <reference value="urn:uuid:69eb049b-1361-4348-906c-de1abbe21a53"/>
                  </subject>
                  <effectivePeriod>
                     <start value="2017-08-26"/>
                  </effectivePeriod>
                  <performer>
                     <reference value="urn:uuid:0ac57f55-34af-4230-9810-37270aa23efc"/>
                  </performer>
                  <valueCodeableConcept>
                     <coding>
                        <system value="http://snomed.info/sct"/>
                        <code value="77386006"/>
                        <display value="Pregnant"/>
                     </coding>
                  </valueCodeableConcept>
                  <method>
                     <coding>
                        <system value="http://snomed.info/sct"/>
                        <code value="16310003"/>
                        <display value="Diagnostic ultrasonography (procedure)"/>
                     </coding>
                  </method>
                  <component><!---->
                     <extension url="http://hl7.org/fhir/us/ecr/StructureDefinition/us-ph-date-determined-extension">
                        <valueDateTime value="2017-10-01T10:15:00+10:00"/>
                     </extension>
                     <code>
                        <coding>
                           <system value="http://loinc.org"/>
                           <code value="11780-4"/>
                           <display value="Delivery date estimated from ovulation date"/>
                        </coding>
                     </code>
                     <valueDateTime value="2017-10-01T10:15:00+10:00"/>
                  </component>
                  <component><!---->
                     <extension url="http://hl7.org/fhir/us/ecr/StructureDefinition/us-ph-date-determined-extension">
                        <valueDateTime value="2017-10-01T10:15:00+10:00"/>
                     </extension>
                     <code>
                        <coding>
                           <system value="http://loinc.org"/>
                           <code value="11887-7"/>
                           <display value="Gestational age Estimated from selected delivery date"/>
                        </coding>
                     </code>
                     <valueQuantity>
                        <value value="143"/>
                        <unit value="d"/>
                     </valueQuantity>
                  </component>
               </Observation>
            </resource>
         </entry>
         <entry>
            <fullUrl value="urn:uuid:ff16794a-024f-4be8-b240-d48887196f25"/>
            <resource>
               <Observation><!--Pregnancy Outcome Observation--><!--No profiles found for any of the following templates: urn:hl7ii:2.16.840.1.113883.10.20.22.4.284:2020-04-01-->
                  <identifier>
                     <system value="urn:ietf:rfc:3986"/>
                     <value value="urn:uuid:6df3e951-e6f8-441d-a298-d9d6d3f405db"/>
                  </identifier>
                  <status value="final"/>
                  <code>
                     <coding>
                        <system value="http://loinc.org"/>
                        <code value="63893-2"/>
                        <display value="Outcome of Pregnancy"/>
                     </coding>
                  </code>
                  <subject>
                     <reference value="urn:uuid:69eb049b-1361-4348-906c-de1abbe21a53"/>
                  </subject>
                  <!--Reference to related Pregnancy Observation-->
                  <focus>
                     <reference value="urn:uuid:b7323475-db68-4ec3-993d-be82ef1b8f76"/>
                  </focus>
                  <effectiveDateTime value="2020-01-05T08:50:00+10:00"/>
                  <performer>
                     <reference value="urn:uuid:0ac57f55-34af-4230-9810-37270aa23efc"/>
                  </performer>
                  <valueCodeableConcept>
                     <coding>
                        <system value="http://snomed.info/sct"/>
                        <code value="237364002"/>
                        <display value="Stillbirth (finding)"/>
                     </coding>
                  </valueCodeableConcept>
                  <!--Birth Order component-->
                  <component>
                     <code>
                        <coding>
                           <system value="http://loinc.org"/>
                           <code value="73771-8"/>
                           <display value="Birth order"/>
                        </coding>
                     </code>
                     <valueInteger value="1"/>
                  </component>
               </Observation>
            </resource>
         </entry>
         <entry>
            <fullUrl value="urn:uuid:472c184a-f7f8-4414-b813-0a158184beca"/>
            <resource>
               <Observation><!--Last Menstrual Period-->
                  <meta>
                     <profile value="http://hl7.org/fhir/us/vr-common-library/StructureDefinition/Observation-last-menstrual-period"/>
                     <!--CDA templateId: urn:hl7ii:2.16.840.1.113883.10.20.30.3.34:2014-06-09-->
                  </meta>
                  <identifier>
                     <system value="urn:ietf:rfc:3986"/>
                     <value value="urn:uuid:5ffea0ae-9ae5-4313-956a-30219b4a6afa"/>
                  </identifier>
                  <status value="final"/>
                  <code>
                     <coding>
                        <system value="http://loinc.org"/>
                        <code value="8665-2"/>
                        <display value="Last menstrual period start date"/>
                     </coding>
                  </code>
                  <subject>
                     <reference value="urn:uuid:69eb049b-1361-4348-906c-de1abbe21a53"/>
                  </subject>
                  <effectiveDateTime value="2020-01-05T10:15:00+10:00"/>
                  <performer>
                     <reference value="urn:uuid:0ac57f55-34af-4230-9810-37270aa23efc"/>
                  </performer>
                  <!--Start of last menstrual period-->
                  <valueDateTime value="2017-08-01"/>
               </Observation>
            </resource>
         </entry>
         <entry>
            <fullUrl value="urn:uuid:cd26d92e-4e5e-4048-91a2-430b7e3e6353"/>
            <resource>
               <Observation><!--Postpartum Status--><!--No profiles found for any of the following templates: urn:hl7ii:2.16.840.1.113883.10.20.22.4.285:2020-04-01-->
                  <identifier>
                     <system value="urn:ietf:rfc:3986"/>
                     <value value="urn:uuid:9701b264-0f70-47f9-bfbf-aa4f9686cd3a"/>
                  </identifier>
                  <status value="final"/>
                  <code>
                     <coding>
                        <system value="http://snomed.info/sct"/>
                        <code value="249197004"/>
                        <display value="Maternal condition during puerperium (observable entity)"/>
                     </coding>
                  </code>
                  <subject>
                     <reference value="urn:uuid:69eb049b-1361-4348-906c-de1abbe21a53"/>
                  </subject>
                  <effectiveDateTime value="2020-01-05T10:15:00+10:00"/>
                  <performer>
                     <reference value="urn:uuid:0ac57f55-34af-4230-9810-37270aa23efc"/>
                  </performer>
                  <!--Postpartum status-->
                  <valueCodeableConcept>
                     <coding>
                        <system value="http://snomed.info/sct"/>
                        <code value="42814007"/>
                        <display value="Mid postpartum state (finding)"/>
                     </coding>
                  </valueCodeableConcept>
               </Observation>
            </resource>
         </entry>
         <entry>
            <fullUrl value="urn:uuid:c74da2e5-2f0a-43a3-8d76-25ea0f9fc5bf"/>
            <resource>
               <Observation><!--No profiles found for any of the following templates: urn:hl7ii:2.16.840.1.113883.10.20.22.4.26urn:hl7ii:2.16.840.1.113883.10.20.22.4.26:2015-08-01-->
                  <identifier>
                     <system value="urn:ietf:rfc:3986"/>
                     <value value="urn:uuid:e421f5c8-29c2-4798-9cb5-7988c236e49d"/>
                  </identifier>
                  <status value="final"/>
                  <category>
                     <coding>
                        <system value="http://terminology.hl7.org/CodeSystem/observation-category"/>
                        <code value="vital-signs"/>
                     </coding>
                  </category>
                  <code>
                     <coding>
                        <system value="http://snomed.info/sct"/>
                        <code value="46680005"/>
                        <display value="Vital Signs"/>
                     </coding>
                     <coding>
                        <system value="http://loinc.org"/>
                        <code value="74728-7"/>
                        <display value="Vital signs, weight, height, head circumference, oximetry, BMI, and BSA panel"/>
                     </coding>
                  </code>
                  <subject>
                     <reference value="urn:uuid:69eb049b-1361-4348-906c-de1abbe21a53"/>
                  </subject>
                  <effectiveDateTime value="2014-05-20T19:36:05.000-05:00"/>
                  <performer>
                     <reference value="urn:uuid:0ac57f55-34af-4230-9810-37270aa23efc"/>
                  </performer>
                  <hasMember><!--2.16.840.1.113883.10.20.22.4.27--><!--2.16.840.1.113883.10.20.22.4.27:2014-06-09-->
                     <reference value="urn:uuid:ffbb63f6-678b-4b0d-8271-b5479ef70614"/>
                  </hasMember>
                  <hasMember><!--2.16.840.1.113883.10.20.22.4.27--><!--2.16.840.1.113883.10.20.22.4.27:2014-06-09-->
                     <reference value="urn:uuid:b5080e8a-4ef5-4c13-8b54-2a3587f11eca"/>
                  </hasMember>
                  <hasMember><!--2.16.840.1.113883.10.20.22.4.27--><!--2.16.840.1.113883.10.20.22.4.27:2014-06-09-->
                     <reference value="urn:uuid:98da2a50-d4e5-4f27-b024-b193d617bc43"/>
                  </hasMember>
                  <hasMember><!--2.16.840.1.113883.10.20.22.4.27--><!--2.16.840.1.113883.10.20.22.4.27:2014-06-09-->
                     <reference value="urn:uuid:3361d846-2557-4f8f-b61d-efff5119f67f"/>
                  </hasMember>
                  <hasMember><!--2.16.840.1.113883.10.20.22.4.27--><!--2.16.840.1.113883.10.20.22.4.27:2014-06-09-->
                     <reference value="urn:uuid:de91e2bf-d13f-41f8-b359-43ffd693bb37"/>
                  </hasMember>
                  <hasMember><!--2.16.840.1.113883.10.20.22.4.27--><!--2.16.840.1.113883.10.20.22.4.27:2014-06-09-->
                     <reference value="urn:uuid:c64d8140-f7d0-43c0-972e-49776dfe2654"/>
                  </hasMember>
                  <hasMember><!--2.16.840.1.113883.10.20.22.4.27--><!--2.16.840.1.113883.10.20.22.4.27:2014-06-09-->
                     <reference value="urn:uuid:3d99c97e-76fb-4be2-90d1-354103ab0454"/>
                  </hasMember>
                  <hasMember><!--2.16.840.1.113883.10.20.22.4.27--><!--2.16.840.1.113883.10.20.22.4.27:2014-06-09-->
                     <reference value="urn:uuid:c5fe5fe6-31b8-4b0f-a4cd-db1155993b9c"/>
                  </hasMember>
               </Observation>
            </resource>
         </entry>
         <entry>
            <fullUrl value="urn:uuid:ffbb63f6-678b-4b0d-8271-b5479ef70614"/>
            <resource>
               <Observation>
                  <meta>
                     <profile value="http://hl7.org/fhir/StructureDefinition/vitalsigns"/>
                     <!--CDA templateId: urn:hl7ii:2.16.840.1.113883.10.20.22.4.27:2014-06-09-->
                  </meta>
                  <identifier>
                     <system value="urn:ietf:rfc:3986"/>
                     <value value="urn:uuid:2721acc5-0d05-4402-9e62-79943ea3901c"/>
                  </identifier>
                  <status value="final"/>
                  <category>
                     <coding>
                        <system value="http://terminology.hl7.org/CodeSystem/observation-category"/>
                        <code value="vital-signs"/>
                     </coding>
                  </category>
                  <code>
                     <coding>
                        <system value="http://loinc.org"/>
                        <code value="85354-9"/>
                        <display value="Blood pressure panel with all children optional"/>
                     </coding>
                     <text value="Blood pressure systolic &amp; diastolic"/>
                  </code>
                  <subject>
                     <reference value="urn:uuid:69eb049b-1361-4348-906c-de1abbe21a53"/>
                  </subject>
                  <effectiveDateTime value="2014-05-20T19:36:05.000-05:00"/>
                  <component>
                     <code>
                        <coding>
                           <system value="http://loinc.org"/>
                           <code value="8480-6"/>
                           <display value="SYSTOLIC BLOOD PRESSURE"/>
                        </coding>
                     </code>
                     <valueQuantity>
                        <value value="120"/>
                        <unit value="mm[Hg]"/>
                     </valueQuantity>
                  </component>
                  <component>
                     <code>
                        <coding>
                           <system value="http://loinc.org"/>
                           <code value="8462-4"/>
                           <display value="DIASTOLIC BLOOD PRESSURE"/>
                        </coding>
                     </code>
                     <valueQuantity>
                        <value value="80"/>
                        <unit value="mm[Hg]"/>
                     </valueQuantity>
                  </component>
               </Observation>
            </resource>
         </entry>
         <entry>
            <fullUrl value="urn:uuid:b5080e8a-4ef5-4c13-8b54-2a3587f11eca"/>
            <resource>
               <Observation>
                  <meta>
                     <profile value="http://hl7.org/fhir/StructureDefinition/vitalsigns"/>
                     <!--CDA templateId: urn:hl7ii:2.16.840.1.113883.10.20.22.4.27:2014-06-09-->
                  </meta>
                  <identifier>
                     <system value="urn:ietf:rfc:3986"/>
                     <value value="urn:uuid:83bbffe1-54e5-4984-a32d-ad8f8d6896d8"/>
                  </identifier>
                  <status value="final"/>
                  <category>
                     <coding>
                        <system value="http://terminology.hl7.org/CodeSystem/observation-category"/>
                        <code value="vital-signs"/>
                     </coding>
                  </category>
                  <code>
                     <coding>
                        <system value="http://loinc.org"/>
                        <code value="8867-4"/>
                        <display value="HEART RATE"/>
                     </coding>
                  </code>
                  <subject>
                     <reference value="urn:uuid:69eb049b-1361-4348-906c-de1abbe21a53"/>
                  </subject>
                  <effectiveDateTime value="2014-05-20T19:36:05.000-05:00"/>
                  <performer>
                     <reference value="urn:uuid:0ac57f55-34af-4230-9810-37270aa23efc"/>
                  </performer>
                  <valueQuantity>
                     <value value="80"/>
                     <unit value="/min"/>
                  </valueQuantity>
               </Observation>
            </resource>
         </entry>
         <entry>
            <fullUrl value="urn:uuid:98da2a50-d4e5-4f27-b024-b193d617bc43"/>
            <resource>
               <Observation>
                  <meta>
                     <profile value="http://hl7.org/fhir/StructureDefinition/vitalsigns"/>
                     <!--CDA templateId: urn:hl7ii:2.16.840.1.113883.10.20.22.4.27:2014-06-09-->
                  </meta>
                  <identifier>
                     <system value="urn:ietf:rfc:3986"/>
                     <value value="urn:uuid:85f5784f-2958-4321-b7b6-3030d1577dc0"/>
                  </identifier>
                  <status value="final"/>
                  <category>
                     <coding>
                        <system value="http://terminology.hl7.org/CodeSystem/observation-category"/>
                        <code value="vital-signs"/>
                     </coding>
                  </category>
                  <code>
                     <coding>
                        <system value="http://loinc.org"/>
                        <code value="8310-5"/>
                        <display value="BODY TEMPERATURE"/>
                     </coding>
                  </code>
                  <subject>
                     <reference value="urn:uuid:69eb049b-1361-4348-906c-de1abbe21a53"/>
                  </subject>
                  <effectiveDateTime value="2014-05-20T19:36:05.000-05:00"/>
                  <performer>
                     <reference value="urn:uuid:0ac57f55-34af-4230-9810-37270aa23efc"/>
                  </performer>
                  <valueQuantity>
                     <value value="99.0"/>
                     <unit value="[degF]"/>
                  </valueQuantity>
               </Observation>
            </resource>
         </entry>
         <entry>
            <fullUrl value="urn:uuid:3361d846-2557-4f8f-b61d-efff5119f67f"/>
            <resource>
               <Observation>
                  <meta>
                     <profile value="http://hl7.org/fhir/StructureDefinition/vitalsigns"/>
                     <!--CDA templateId: urn:hl7ii:2.16.840.1.113883.10.20.22.4.27:2014-06-09-->
                  </meta>
                  <identifier>
                     <system value="urn:ietf:rfc:3986"/>
                     <value value="urn:uuid:b618fa98-6596-4e19-a9e7-6bdb48012fc8"/>
                  </identifier>
                  <status value="final"/>
                  <category>
                     <coding>
                        <system value="http://terminology.hl7.org/CodeSystem/observation-category"/>
                        <code value="vital-signs"/>
                     </coding>
                  </category>
                  <code>
                     <coding>
                        <system value="http://loinc.org"/>
                        <code value="9279-1"/>
                        <display value="RESPIRATORY RATE"/>
                     </coding>
                  </code>
                  <subject>
                     <reference value="urn:uuid:69eb049b-1361-4348-906c-de1abbe21a53"/>
                  </subject>
                  <effectiveDateTime value="2014-05-20T19:36:05.000-05:00"/>
                  <performer>
                     <reference value="urn:uuid:0ac57f55-34af-4230-9810-37270aa23efc"/>
                  </performer>
                  <valueQuantity>
                     <value value="18"/>
                     <unit value="/min"/>
                  </valueQuantity>
               </Observation>
            </resource>
         </entry>
         <entry>
            <fullUrl value="urn:uuid:de91e2bf-d13f-41f8-b359-43ffd693bb37"/>
            <resource>
               <Observation>
                  <meta>
                     <profile value="http://hl7.org/fhir/StructureDefinition/vitalsigns"/>
                     <!--CDA templateId: urn:hl7ii:2.16.840.1.113883.10.20.22.4.27:2014-06-09-->
                  </meta>
                  <identifier>
                     <system value="urn:ietf:rfc:3986"/>
                     <value value="urn:uuid:1b1274a9-b45f-449a-8493-08eaeaeba7d6"/>
                  </identifier>
                  <status value="final"/>
                  <category>
                     <coding>
                        <system value="http://terminology.hl7.org/CodeSystem/observation-category"/>
                        <code value="vital-signs"/>
                     </coding>
                  </category>
                  <code>
                     <coding>
                        <system value="http://loinc.org"/>
                        <code value="8302-2"/>
                        <display value="HEIGHT"/>
                     </coding>
                  </code>
                  <subject>
                     <reference value="urn:uuid:69eb049b-1361-4348-906c-de1abbe21a53"/>
                  </subject>
                  <effectiveDateTime value="2014-05-20T19:36:05.000-05:00"/>
                  <performer>
                     <reference value="urn:uuid:0ac57f55-34af-4230-9810-37270aa23efc"/>
                  </performer>
                  <valueQuantity>
                     <value value="67"/>
                     <unit value="[in_us]"/>
                  </valueQuantity>
               </Observation>
            </resource>
         </entry>
         <entry>
            <fullUrl value="urn:uuid:c64d8140-f7d0-43c0-972e-49776dfe2654"/>
            <resource>
               <Observation>
                  <meta>
                     <profile value="http://hl7.org/fhir/StructureDefinition/vitalsigns"/>
                     <!--CDA templateId: urn:hl7ii:2.16.840.1.113883.10.20.22.4.27:2014-06-09-->
                  </meta>
                  <identifier>
                     <system value="urn:ietf:rfc:3986"/>
                     <value value="urn:uuid:1c1f89f1-8e93-4a46-b37f-9434f99727b8"/>
                  </identifier>
                  <status value="final"/>
                  <category>
                     <coding>
                        <system value="http://terminology.hl7.org/CodeSystem/observation-category"/>
                        <code value="vital-signs"/>
                     </coding>
                  </category>
                  <code>
                     <coding>
                        <system value="http://loinc.org"/>
                        <code value="3141-9"/>
                        <display value="WEIGHT"/>
                     </coding>
                  </code>
                  <subject>
                     <reference value="urn:uuid:69eb049b-1361-4348-906c-de1abbe21a53"/>
                  </subject>
                  <effectiveDateTime value="2014-05-20T19:36:05.000-05:00"/>
                  <performer>
                     <reference value="urn:uuid:0ac57f55-34af-4230-9810-37270aa23efc"/>
                  </performer>
                  <valueQuantity>
                     <value value="239.9"/>
                     <unit value="[lb_av]"/>
                  </valueQuantity>
               </Observation>
            </resource>
         </entry>
         <entry>
            <fullUrl value="urn:uuid:3d99c97e-76fb-4be2-90d1-354103ab0454"/>
            <resource>
               <Observation>
                  <meta>
                     <profile value="http://hl7.org/fhir/StructureDefinition/vitalsigns"/>
                     <!--CDA templateId: urn:hl7ii:2.16.840.1.113883.10.20.22.4.27:2014-06-09-->
                  </meta>
                  <identifier>
                     <system value="urn:ietf:rfc:3986"/>
                     <value value="urn:uuid:fd4ccd0b-c045-4587-8976-a17e2e064a1e"/>
                  </identifier>
                  <status value="final"/>
                  <category>
                     <coding>
                        <system value="http://terminology.hl7.org/CodeSystem/observation-category"/>
                        <code value="vital-signs"/>
                     </coding>
                  </category>
                  <code>
                     <coding>
                        <system value="http://loinc.org"/>
                        <code value="39156-5"/>
                        <display value="BODY MASS INDEX"/>
                     </coding>
                  </code>
                  <subject>
                     <reference value="urn:uuid:69eb049b-1361-4348-906c-de1abbe21a53"/>
                  </subject>
                  <effectiveDateTime value="2014-05-20T19:36:05.000-05:00"/>
                  <performer>
                     <reference value="urn:uuid:0ac57f55-34af-4230-9810-37270aa23efc"/>
                  </performer>
                  <valueQuantity>
                     <value value="37.58"/>
                     <unit value="kg/m2"/>
                  </valueQuantity>
               </Observation>
            </resource>
         </entry>
         <entry>
            <fullUrl value="urn:uuid:c5fe5fe6-31b8-4b0f-a4cd-db1155993b9c"/>
            <resource>
               <Observation>
                  <meta>
                     <profile value="http://hl7.org/fhir/StructureDefinition/vitalsigns"/>
                     <!--CDA templateId: urn:hl7ii:2.16.840.1.113883.10.20.22.4.27:2014-06-09-->
                  </meta>
                  <identifier>
                     <system value="urn:ietf:rfc:3986"/>
                     <value value="urn:uuid:0ef4afda-1638-4ad2-9978-7321bbceb0cb"/>
                  </identifier>
                  <status value="final"/>
                  <category>
                     <coding>
                        <system value="http://terminology.hl7.org/CodeSystem/observation-category"/>
                        <code value="vital-signs"/>
                     </coding>
                  </category>
                  <code>
                     <coding>
                        <system value="http://loinc.org"/>
                        <code value="2710-2"/>
                        <display value="OXYGEN SATURATION"/>
                     </coding>
                  </code>
                  <subject>
                     <reference value="urn:uuid:69eb049b-1361-4348-906c-de1abbe21a53"/>
                  </subject>
                  <effectiveDateTime value="2014-05-20T19:36:05.000-05:00"/>
                  <performer>
                     <reference value="urn:uuid:0ac57f55-34af-4230-9810-37270aa23efc"/>
                  </performer>
                  <valueQuantity>
                     <value value="98"/>
                     <unit value="%"/>
                  </valueQuantity>
               </Observation>
            </resource>
         </entry>
         <entry>
            <fullUrl value="urn:uuid:70810be1-3311-4f8e-bf61-2ba81702a28e"/>
            <resource>
               <Observation><!--Processing as generic observation: 2.16.840.1.113883.10.20.15.2.3.40:-->
                  <meta>
                     <profile value="http://hl7.org/fhir/us/ecr/StructureDefinition/us-ph-emergency-outbreak-information"/>
                     <!--CDA templateId: urn:hl7ii:2.16.840.1.113883.10.20.15.2.3.40:2021-01-01-->
                  </meta>
                  <identifier>
                     <system value="urn:ietf:rfc:3986"/>
                     <value value="urn:uuid:ab1791b0-5c71-11db-b0de-0800200c9a54"/>
                  </identifier>
                  <status value="final"/>
                  <code>
                     <coding>
                        <system value="http://terminology.hl7.org/CodeSystem/v3-NullFlavor"/>
                        <code value="OTH"/>
                        <display value="Other"/>
                     </coding>
                     <text value="Employee desk distance from mail sorter"/>
                  </code>
                  <subject>
                     <reference value="urn:uuid:69eb049b-1361-4348-906c-de1abbe21a53"/>
                  </subject>
                  <effectivePeriod>
                     <start value="2020-11-01"/>
                  </effectivePeriod>
                  <!--Using document effective time as issued date-->
                  <issued value="2020-11-07T09:44:21.000-05:00"/>
                  <performer/>
                  <valueQuantity>
                     <value value="2"/>
                     <unit value="m"/>
                  </valueQuantity>
               </Observation>
            </resource>
         </entry>
         <entry>
            <fullUrl value="urn:uuid:449c59bc-adbf-4bb6-a9e9-119a14229171"/>
            <resource><!--Relevant Reportable Condition Observation-->
               <Observation>
                  <meta>
                     <profile value="http://hl7.org/fhir/us/ecr/StructureDefinition/rr-relevant-reportable-condition-observation"/>
                     <!--CDA templateId: urn:hl7ii:2.16.840.1.113883.10.20.15.2.3.12:2017-04-01-->
                  </meta>
                  <identifier>
                     <system value="urn:ietf:rfc:3986"/>
                     <value value="urn:uuid:a054d401-7b23-4b15-bc28-c889c156ba6a"/>
                  </identifier>
                  <status value="final"/>
                  <code>
                     <coding>
                        <system value="http://snomed.info/sct"/>
                        <code value="64572001"/>
                        <display value="Condition"/>
                     </coding>
                     <coding>
                        <system value="http://loinc.org"/>
                        <code value="75323-6"/>
                        <display value="Condition"/>
                     </coding>
                  </code>
                  <subject>
                     <reference value="urn:uuid:69eb049b-1361-4348-906c-de1abbe21a53"/>
                  </subject>
                  <valueCodeableConcept>
                     <coding>
                        <system value="http://snomed.info/sct"/>
                        <code value="3928002"/>
                        <display value="Zika virus disease (disorder)"/>
                     </coding>
                  </valueCodeableConcept>
                  <hasMember><!--2.16.840.1.113883.10.20.15.2.3.13:2017-04-01-->
                     <reference value="urn:uuid:ab12580b-143f-480c-8da6-fdfb28e2b05f"/>
                  </hasMember>
               </Observation>
            </resource>
         </entry>
         <entry>
            <fullUrl value="urn:uuid:ab12580b-143f-480c-8da6-fdfb28e2b05f"/>
            <resource><!--Reportability Information Observation-->
               <Observation>
                  <meta>
                     <profile value="http://hl7.org/fhir/us/ecr/StructureDefinition/rr-reportability-information-observation"/>
                     <!--CDA templateId: urn:hl7ii:2.16.840.1.113883.10.20.15.2.3.13:2017-04-01-->
                  </meta>
                  <extension url="http://hl7.org/fhir/us/ecr/StructureDefinition/us-ph-determination-of-reportability-extension">
                     <valueCodeableConcept>
                        <coding>
                           <system value="urn:oid:2.16.840.1.114222.4.5.274"/>
                           <code value="RRVS1"/>
                           <display value="Reportable"/>
                        </coding>
                     </valueCodeableConcept>
                  </extension>
                  <extension url="http://hl7.org/fhir/us/ecr/StructureDefinition/us-ph-determination-of-reportability-reason-extension">
                     <valueString value="Reason for determination of reportability"/>
                  </extension>
                  <extension url="http://hl7.org/fhir/us/ecr/StructureDefinition/us-ph-determination-of-reportability-rule-extension">
                     <valueString value="Rule used in reportability determination"/>
                  </extension>
                  <identifier>
                     <system value="urn:ietf:rfc:3986"/>
                     <value value="urn:uuid:fcf92143-4289-450e-9550-8d574facf626"/>
                  </identifier>
                  <status value="final"/>
                  <code>
                     <coding>
                        <system value="urn:oid:2.16.840.1.114222.4.5.274"/>
                        <code value="RRVS7"/>
                        <display value="Both patient home address and provider facility address"/>
                     </coding>
                  </code>
                  <subject>
                     <reference value="urn:uuid:69eb049b-1361-4348-906c-de1abbe21a53"/>
                  </subject>
                  <performer>
                     <reference value="urn:uuid:8e1b615a-5fe2-413c-bf70-eba22c916380"/>
                  </performer>
                  <performer>
                     <reference value="urn:uuid:e99d178f-781d-4fbe-91bf-cb3bdf11bdd9"/>
                  </performer>
                  <performer>
                     <reference value="urn:uuid:08bc486f-5fce-47b5-99a2-3f40c417a0f2"/>
                  </performer>
               </Observation>
            </resource>
         </entry>
         <entry>
            <fullUrl value="urn:uuid:8e1b615a-5fe2-413c-bf70-eba22c916380"/>
            <resource>
               <Organization>
                  <meta>
                     <profile value="http://hl7.org/fhir/us/ecr/StructureDefinition/rr-responsible-agency-organization"/>
                  </meta>
                  <!--participant[LOC]-->
                  <identifier>
                     <system value="http://hl7.org/fhir/sid/us-npi"/>
                     <value value="12341234"/>
                  </identifier>
                  <active value="true"/>
                  <type>
                     <coding>
                        <system value="urn:oid:2.16.840.1.114222.4.5.232"/>
                        <code value="RR8"/>
                        <display value="Responsible Agency"/>
                     </coding>
                  </type>
                  <name value="State Department of Health"/>
                  <telecom>
                     <system value="phone"/>
                     <value value="+1-555-555-3555"/>
                     <use value="work"/>
                  </telecom>
                  <telecom>
                     <system value="fax"/>
                     <value value="+1-955-555-3555"/>
                     <use value="work"/>
                  </telecom>
                  <telecom>
                     <system value="email"/>
                     <value value="mail@healthauthoritywest.gov"/>
                     <use value="work"/>
                  </telecom>
                  <telecom>
                     <system value="url"/>
                     <value value="https://www.healthauthoritywest.gov"/>
                     <use value="work"/>
                  </telecom>
                  <address>
                     <use value="work"/>
                     <line value="7777 Health Authority Drive"/>
                     <state value="State"/>
                     <postalCode value="99999"/>
                  </address>
               </Organization>
            </resource>
         </entry>
         <entry>
            <fullUrl value="urn:uuid:e99d178f-781d-4fbe-91bf-cb3bdf11bdd9"/>
            <resource>
               <Organization>
                  <meta>
                     <profile value="http://hl7.org/fhir/us/ecr/StructureDefinition/rr-rules-authoring-agency-organization"/>
                  </meta>
                  <!--participant[LOC]-->
                  <identifier>
                     <system value="http://hl7.org/fhir/sid/us-npi"/>
                     <value value="12341234"/>
                  </identifier>
                  <active value="true"/>
                  <type>
                     <coding>
                        <system value="urn:oid:2.16.840.1.114222.4.5.232"/>
                        <code value="RR12"/>
                        <display value="Rules Authoring Agency"/>
                     </coding>
                  </type>
                  <name value="State Department of Health"/>
                  <telecom>
                     <system value="phone"/>
                     <value value="+1-555-555-3555"/>
                     <use value="work"/>
                  </telecom>
                  <telecom>
                     <system value="fax"/>
                     <value value="+1-955-555-3555"/>
                     <use value="work"/>
                  </telecom>
                  <telecom>
                     <system value="email"/>
                     <value value="mail@healthauthoritywest.gov"/>
                     <use value="work"/>
                  </telecom>
                  <telecom>
                     <system value="url"/>
                     <value value="https://www.healthauthoritywest.gov"/>
                     <use value="work"/>
                  </telecom>
                  <address>
                     <use value="work"/>
                     <line value="7777 Health Authority Drive"/>
                     <city value="City"/>
                     <state value="State"/>
                     <postalCode value="99999"/>
                  </address>
               </Organization>
            </resource>
         </entry>
         <entry>
            <fullUrl value="urn:uuid:08bc486f-5fce-47b5-99a2-3f40c417a0f2"/>
            <resource>
               <Organization>
                  <meta>
                     <profile value="http://hl7.org/fhir/us/ecr/StructureDefinition/rr-routing-entity-organization"/>
                  </meta>
                  <!--participant[LOC]-->
                  <identifier>
                     <system value="http://hl7.org/fhir/sid/us-npi"/>
                     <value value="43214321"/>
                  </identifier>
                  <active value="true"/>
                  <type>
                     <coding>
                        <system value="urn:oid:2.16.840.1.114222.4.5.232"/>
                        <code value="RR7"/>
                        <display value="Routing Entity"/>
                     </coding>
                  </type>
                  <name value="State Department of Health Routing Agency"/>
                  <telecom>
                     <system value="phone"/>
                     <value value="+1-555-555-3555"/>
                     <use value="work"/>
                  </telecom>
                  <telecom>
                     <system value="fax"/>
                     <value value="+1-955-555-3555"/>
                     <use value="work"/>
                  </telecom>
                  <telecom>
                     <system value="email"/>
                     <value value="mail@healthauthoritywest.gov"/>
                     <use value="work"/>
                  </telecom>
                  <telecom>
                     <system value="url"/>
                     <value value="https://www.healthauthoritywest.gov"/>
                     <use value="work"/>
                  </telecom>
                  <address>
                     <use value="work"/>
                     <line value="7777 Health Authority Drive"/>
                     <city value="City"/>
                     <state value="State"/>
                     <postalCode value="99999"/>
                  </address>
               </Organization>
            </resource>
         </entry>
      </Bundle>
   </content-wrap>
</result>
