<?xml version="1.0" encoding="UTF-8"?>
<result xmlns="http://www.jenitennison.com/xslt/xspec" select="/element()">
   <content-wrap xmlns="">
      <Bundle xmlns="http://hl7.org/fhir">
         <id value="eICR-bundle-d624e15"/>
         <meta>
            <profile value="http://hl7.org/fhir/us/ecr/StructureDefinition/eicr-document-bundle"/>
         </meta>
         <identifier>
            <system value="urn:ietf:rfc:3986"/>
            <value value="urn:uuid:2.16.840.1.113883.9.9.9.9.9"/>
         </identifier>
         <type value="document"/>
         <timestamp value="2020-11-07T09:44:21.000-05:00"/>
         <entry>
            <fullUrl value="urn:uuid:9ae5a71b-7cda-4564-bbd8-fa16385fab70"/>
            <resource>
               <Composition>
                  <meta>
                     <profile value="http://hl7.org/fhir/us/ecr/StructureDefinition/eicr-composition"/>
                     <!--CDA templateId: urn:hl7ii:2.16.840.1.113883.10.20.15.2:2021-01-01-->
                  </meta>
                  <language value="en-US"/>
                  <text>
                     <status value="generated"/>
                     <div xmlns="http://www.w3.org/1999/xhtml" lang="en-US">
                        <table class="header_table"
                               style="border: 1pt inset #00008b; line-height: 10pt; width: 100%;">
                           <tbody>
                              <tr>
                                 <td class="td_header_role_name"
                                     style="width: 20%; background-color: #3399ff; padding: 0.1cm 0.2cm; vertical-align: top; background-color: #ffffcc;">
                                    <span class="td_label">Document Id</span>
                                 </td>
                                 <td class="td_header_role_value">db734647-fc99-424c-a864-7e3cda82e704 2.16.840.1.113883.9.9.9.9.9</td>
                              </tr>
                              <tr>
                                 <td class="td_header_role_name"
                                     style="width: 20%; background-color: #3399ff; padding: 0.1cm 0.2cm; vertical-align: top; background-color: #ffffcc;">
                                    <span class="td_label">Document Created:</span>
                                 </td>
                                 <td class="td_header_role_value">November 7, 2020, 09:44:21, EST </td>
                              </tr>
                           </tbody>
                        </table>
                        <table class="header_table"
                               style="border: 1pt inset #00008b; line-height: 10pt; width: 100%;">
                           <tbody><!--Author-->
                              <tr>
                                 <td class="td_header_role_name"
                                     style="width: 20%; background-color: #3399ff; padding: 0.1cm 0.2cm; vertical-align: top; background-color: #ffffcc;">
                                    <span class="td_label">Author</span>
                                 </td>
                                 <td class="td_header_role_value"/>
                              </tr>
                              <tr>
                                 <td class="td_header_role_name"
                                     style="width: 20%; background-color: #3399ff; padding: 0.1cm 0.2cm; vertical-align: top; background-color: #ffffcc;">
                                    <span class="td_label">Contact info</span>
                                 </td>
                                 <td class="td_header_role_value">1002 Healthcare Drive<br/>Ann Arbor, MI 99999, US<br/>Tel (Work Place):  +1-(555)555-1212;ext=9998<br/>
                                 </td>
                              </tr>
                              <tr>
                                 <td class="td_header_role_name"
                                     style="width: 20%; background-color: #3399ff; padding: 0.1cm 0.2cm; vertical-align: top; background-color: #ffffcc;">
                                    <span class="td_label">Author</span>
                                 </td>
                                 <td class="td_header_role_value">Registered Pharmacist, RPh, The Pharmacy Alliance Health Group</td>
                              </tr>
                              <tr>
                                 <td class="td_header_role_name"
                                     style="width: 20%; background-color: #3399ff; padding: 0.1cm 0.2cm; vertical-align: top; background-color: #ffffcc;">
                                    <span class="td_label">Contact info</span>
                                 </td>
                                 <td class="td_header_role_value">1004 Pharmacy Drive<br/>Portland, OR 99123, US<br/>Tel (Work Place):  +1(555)555-1004<br/>
                                 </td>
                              </tr>
                           </tbody>
                        </table>
                        <table class="header_table"
                               style="border: 1pt inset #00008b; line-height: 10pt; width: 100%;">
                           <tbody><!--encompassingEncounter-->
                              <tr>
                                 <td class="td_header_role_name"
                                     style="width: 20%; background-color: #3399ff; padding: 0.1cm 0.2cm; vertical-align: top; background-color: #ffffcc;">
                                    <span class="td_label">Encounter Id</span>
                                 </td>
                                 <td class="td_header_role_value">9937012 2.16.840.1.113883.19</td>
                              </tr>
                              <tr>
                                 <td class="td_header_role_name"
                                     style="width: 20%; background-color: #3399ff; padding: 0.1cm 0.2cm; vertical-align: top; background-color: #ffffcc;">
                                    <span class="td_label">Encounter Type</span>
                                 </td>
                                 <td class="td_header_role_value">Ambulatory</td>
                              </tr>
                              <tr>
                                 <td class="td_header_role_name"
                                     style="width: 20%; background-color: #3399ff; padding: 0.1cm 0.2cm; vertical-align: top; background-color: #ffffcc;">
                                    <span class="td_label">Encounter Date</span>
                                 </td>
                                 <td class="td_header_role_value"> From November 7, 2020 </td>
                              </tr>
                              <tr>
                                 <td class="td_header_role_name"
                                     style="width: 20%; background-color: #3399ff; padding: 0.1cm 0.2cm; vertical-align: top; background-color: #ffffcc;">
                                    <span class="td_label">Encounter Location</span>
                                 </td>
                                 <td class="td_header_role_value">Outpatient facility</td>
                              </tr>
                              <tr>
                                 <td class="td_header_role_name"
                                     style="width: 20%; background-color: #3399ff; padding: 0.1cm 0.2cm; vertical-align: top; background-color: #ffffcc;">
                                    <span class="td_label">Responsible party</span>
                                 </td>
                                 <td class="td_header_role_value">Henry Seven, M.D. of Community Health and Hospitals</td>
                              </tr>
                              <tr>
                                 <td class="td_header_role_name"
                                     style="width: 20%; background-color: #3399ff; padding: 0.1cm 0.2cm; vertical-align: top; background-color: #ffffcc;">
                                    <span class="td_label">Contact info</span>
                                 </td>
                                 <td class="td_header_role_value">1002 Healthcare Drive<br/>Ann Arbor, MI 99999, US<br/>Tel (Work Place):  +1(555)555-1003<br/>Fax (Work Place):  +1(555)555-1234<br/>Mail (Work Place):  mail@provider_domain.com<br/>
                                 </td>
                              </tr>
                           </tbody>
                        </table>
                        <table class="header_table"
                               style="border: 1pt inset #00008b; line-height: 10pt; width: 100%;">
                           <tbody>
                              <tr>
                                 <td class="td_header_role_name"
                                     style="width: 20%; background-color: #3399ff; padding: 0.1cm 0.2cm; vertical-align: top; background-color: #ffffcc;">
                                    <span class="td_label">Document maintained by</span>
                                 </td>
                                 <td class="td_header_role_value">Good Health Hospital</td>
                              </tr>
                              <tr>
                                 <td class="td_header_role_name"
                                     style="width: 20%; background-color: #3399ff; padding: 0.1cm 0.2cm; vertical-align: top; background-color: #ffffcc;">
                                    <span class="td_label">Contact info</span>
                                 </td>
                                 <td class="td_header_role_value">1000 Hospital Lane<br/>Ann Arbor, MI 99999, US<br/>Tel (Work Place):  +1(555)555-1212<br/>
                                 </td>
                              </tr>
                           </tbody>
                        </table>
                     </div>
                  </text>
                  <extension url="http://hl7.org/fhir/StructureDefinition/composition-clinicaldocument-versionNumber">
                     <valueString value="2"/>
                  </extension>
                  <identifier>
                     <system value="urn:ietf:rfc:3986"/>
                     <value value="urn:uuid:2.16.840.1.113883.3.117.1.1.5.2.1.1.1"/>
                  </identifier>
                  <status value="final"/>
                  <type>
                     <coding>
                        <system value="http://loinc.org"/>
                        <code value="55751-2"/>
                        <display value="Public Health Case Report"/>
                     </coding>
                  </type>
                  <subject>
                     <reference value="urn:uuid:90936bef-baac-4092-aa76-aa6127036639"/>
                  </subject>
                  <encounter>
                     <reference value="urn:uuid:7614354c-edd5-4202-bfcc-340b2812d3fb"/>
                  </encounter>
                  <date value="2020-11-07T09:44:21.000-05:00"/>
                  <author>
                     <reference value="urn:uuid:095cef6e-49c1-43f1-94d3-52b72bba4ae0"/>
                  </author>
                  <author>
                     <reference value="urn:uuid:43454e64-40bd-4b0f-b9da-97f1882de54d"/>
                  </author>
                  <title value="Initial Public Health Case Report: eICR-CDA-001_R3"/>
                  <confidentiality value="N"/>
                  <custodian>
                     <reference value="urn:uuid:0584ebaa-95aa-4798-8b2e-6e42d12314e1"/>
                  </custodian>
                  <relatesTo>
                     <code value="transforms"/>
                     <targetIdentifier>
                        <system value="urn:oid:2.16.840.1.113883.9.9.9.9.9"/>
                        <value value="db734647-fc99-424c-a864-7e3cda82e704"/>
                     </targetIdentifier>
                  </relatesTo>
                  <section>
                     <title value="Plan of Treatment"/>
                     <code>
                        <coding>
                           <system value="http://loinc.org"/>
                           <code value="18776-5"/>
                           <display value="Plan of Treatment"/>
                        </coding>
                     </code>
                     <text>
                        <status value="generated"/>
                        <div xmlns="http://www.w3.org/1999/xhtml">
                           <table>
                              <thead>
                                 <tr>
                                    <th>Order</th>
                                    <th>Trigger Code</th>
                                    <th>Trigger Code Code System</th>
                                    <th>RCTC OID</th>
                                    <th>RCTC Version</th>
                                    <th>Planned Date</th>
                                 </tr>
                              </thead>
                              <tbody>
                                 <tr>
                                    <td>Bacillus anthracis strain V770-NP1-R antigens 0.1 MG/ML Injectable</td>
                                    <td>832679</td>
                                    <td>RxNorm</td>
                                    <td>2.16.840.1.114222.4.11.7508</td>
                                    <td>2020-11-13</td>
                                    <td>NOV 8, 2020</td>
                                 </tr>
                                 <tr>
                                    <td>Zika virus envelope (E) gene [Presence] in Serum<br/>by Probe and target amplification method</td>
                                    <td>80825-3</td>
                                    <td>LOINC</td>
                                    <td>2.16.840.1.114222.4.11.7508</td>
                                    <td>2020-11-13</td>
                                    <td>NOV 8, 2020</td>
                                 </tr>
                                 <tr>
                                    <td>Extracorporeal membrane oxygenation (procedure)</td>
                                    <td>233573008</td>
                                    <td>SNOMED CT</td>
                                    <td>2.16.840.1.114222.4.11.7508</td>
                                    <td>2020-11-13</td>
                                    <td>NOV 8, 2020</td>
                                 </tr>
                                 <tr>
                                    <td>Airborne precautions (procedure)</td>
                                    <td>409524006</td>
                                    <td>SNOMED CT</td>
                                    <td>2.16.840.1.114222.4.11.7508</td>
                                    <td>2020-11-13</td>
                                    <td>NOV 8, 2020</td>
                                 </tr>
                                 <tr>
                                    <td>Ventilator care and adjustment (regime/therapy)</td>
                                    <td>385857005</td>
                                    <td>SNOMED CT</td>
                                    <td>2.16.840.1.114222.4.11.7508</td>
                                    <td>2020-11-13</td>
                                    <td>NOV 8, 2020</td>
                                 </tr>
                                 <tr>
                                    <td>Radiographic imaging procedure (procedure)</td>
                                    <td>363680008</td>
                                    <td>SNOMED CT</td>
                                    <td/>
                                    <td/>
                                    <td>NOV 8, 2020</td>
                                 </tr>
                              </tbody>
                           </table>
                        </div>
                     </text>
                     <!--2.16.840.1.113883.10.20.22.4.42:2014-06-09-->
                     <entry>
                        <extension url="http://hl7.org/fhir/us/ecr/StructureDefinition/eicr-trigger-code-flag-extension">
                           <extension url="triggerCodeValueSet">
                              <valueOid value="urn:oid:2.16.840.1.114222.4.11.7508"/>
                           </extension>
                           <extension url="triggerCodeValueSetVersion">
                              <valueString value="2020-11-13"/>
                           </extension>
                           <extension url="triggerCode">
                              <valueCoding>
                                 <system value="http://www.nlm.nih.gov/research/umls/rxnorm"/>
                                 <code value="832679"/>
                                 <display value="Bacillus anthracis strain V770-NP1-R antigens 0.1 MG/ML Injectable"/>
                              </valueCoding>
                           </extension>
                        </extension>
                        <reference value="urn:uuid:1dccf10c-9a26-4ab2-8dcc-c4e6cfc3e22a"/>
                     </entry>
                     <!--2.16.840.1.113883.10.20.22.4.44-->
                     <!--2.16.840.1.113883.10.20.22.4.44:2014-06-09-->
                     <!--2.16.840.1.113883.10.20.15.2.3.4:2019-04-01-->
                     <entry>
                        <extension url="http://hl7.org/fhir/us/ecr/StructureDefinition/eicr-trigger-code-flag-extension">
                           <extension url="triggerCodeValueSet">
                              <valueOid value="urn:oid:2.16.840.1.114222.4.11.7508"/>
                           </extension>
                           <extension url="triggerCodeValueSetVersion">
                              <valueString value="2020-11-13"/>
                           </extension>
                           <extension url="triggerCode">
                              <valueCoding>
                                 <system value="http://loinc.org"/>
                                 <code value="80825-3"/>
                                 <display value="Zika virus envelope (E) gene [Presence] in Serum by Probe and target amplification method"/>
                              </valueCoding>
                           </extension>
                        </extension>
                        <reference value="urn:uuid:5c777252-70f8-448e-8fee-063f1806c7b8"/>
                     </entry>
                     <!--2.16.840.1.113883.10.20.22.4.41:2014-06-09-->
                     <!--2.16.840.1.113883.10.20.15.2.3.42:2021-01-01-->
                     <entry>
                        <extension url="http://hl7.org/fhir/us/ecr/StructureDefinition/eicr-trigger-code-flag-extension">
                           <extension url="triggerCodeValueSet">
                              <valueOid value="urn:oid:2.16.840.1.114222.4.11.7508"/>
                           </extension>
                           <extension url="triggerCodeValueSetVersion">
                              <valueString value="2020-11-13"/>
                           </extension>
                           <extension url="triggerCode">
                              <valueCoding>
                                 <system value="http://snomed.info/sct"/>
                                 <code value="233573008"/>
                                 <display value="Extracorporeal membrane oxygenation (procedure)"/>
                              </valueCoding>
                           </extension>
                        </extension>
                        <reference value="urn:uuid:101855f8-45e6-4dc5-850b-898e31997096"/>
                     </entry>
                     <!--2.16.840.1.113883.10.20.22.4.39:2014-06-09-->
                     <!--2.16.840.1.113883.10.20.15.2.3.41:2021-01-01-->
                     <entry>
                        <extension url="http://hl7.org/fhir/us/ecr/StructureDefinition/eicr-trigger-code-flag-extension">
                           <extension url="triggerCodeValueSet">
                              <valueOid value="urn:oid:2.16.840.1.114222.4.11.7508"/>
                           </extension>
                           <extension url="triggerCodeValueSetVersion">
                              <valueString value="2020-11-13"/>
                           </extension>
                           <extension url="triggerCode">
                              <valueCoding>
                                 <system value="http://snomed.info/sct"/>
                                 <code value="409524006"/>
                                 <display value="Airborne precautions (procedure)"/>
                              </valueCoding>
                           </extension>
                        </extension>
                        <reference value="urn:uuid:3eecb35e-04a8-42ca-8cbe-b2901cc610da"/>
                     </entry>
                     <!--2.16.840.1.113883.10.20.22.4.44:2014-06-09-->
                     <!--2.16.840.1.113883.10.20.15.2.3.43:2021-01-01-->
                     <entry>
                        <extension url="http://hl7.org/fhir/us/ecr/StructureDefinition/eicr-trigger-code-flag-extension">
                           <extension url="triggerCodeValueSet">
                              <valueOid value="urn:oid:2.16.840.1.114222.4.11.7508"/>
                           </extension>
                           <extension url="triggerCodeValueSetVersion">
                              <valueString value="2020-11-13"/>
                           </extension>
                           <extension url="triggerCode">
                              <valueCoding>
                                 <system value="http://snomed.info/sct"/>
                                 <code value="385857005"/>
                                 <display value="Ventilator care and adjustment (regime/therapy)"/>
                              </valueCoding>
                           </extension>
                        </extension>
                        <reference value="urn:uuid:4ec80321-3464-4a73-bd1b-a00afd06a83b"/>
                     </entry>
                     <!--2.16.840.1.113883.10.20.22.4.44:2014-06-09-->
                     <entry>
                        <reference value="urn:uuid:d617168b-bae6-44f4-8b0b-1e1288629766"/>
                     </entry>
                  </section>
                  <section>
                     <title value="History of Present Illness"/>
                     <code>
                        <coding>
                           <system value="http://loinc.org"/>
                           <code value="10164-2"/>
                           <display value="HISTORY OF PRESENT ILLNESS"/>
                        </coding>
                     </code>
                     <text>
                        <status value="generated"/>
                        <div xmlns="http://www.w3.org/1999/xhtml">
                           <p> Persistent Cough REPORTED starting on 2020/10/05<br/> Whooping Respiration not reported<br/> Paroxysms Of Coughing REPORTED starting on 2020/11/04<br/> Post-tussive vomiting not
                            reported<br/>
                           </p>
                        </div>
                     </text>
                  </section>
                  <section>
                     <title value="Medications Administered"/>
                     <code>
                        <coding>
                           <system value="http://loinc.org"/>
                           <code value="29549-3"/>
                           <display value="Medications Administered"/>
                        </coding>
                     </code>
                     <text>
                        <status value="generated"/>
                        <div xmlns="http://www.w3.org/1999/xhtml">
                           <table>
                              <thead>
                                 <tr>
                                    <th>Medication</th>
                                    <th>Dose</th>
                                    <th>Duration</th>
                                    <th>Route</th>
                                 </tr>
                              </thead>
                              <tbody>
                                 <tr>
                                    <td>Azithromycin 500 MG Oral Tablet</td>
                                    <td>1 g</td>
                                    <td>NOV 7, 2020 11:60</td>
                                    <td>ORAL</td>
                                 </tr>
                              </tbody>
                           </table>
                        </div>
                     </text>
                     <!--2.16.840.1.113883.10.20.22.4.16-->
                     <!--2.16.840.1.113883.10.20.22.4.16:2014-06-09-->
                     <entry>
                        <extension url="http://hl7.org/fhir/us/ecr/StructureDefinition/eicr-trigger-code-flag-extension">
                           <extension url="triggerCodeValueSet">
                              <valueOid value="urn:oid:2.16.840.1.114222.4.11.7508"/>
                           </extension>
                           <extension url="triggerCodeValueSetVersion">
                              <valueString value="2020-11-13"/>
                           </extension>
                           <extension url="triggerCode">
                              <valueCoding>
                                 <system value="http://www.nlm.nih.gov/research/umls/rxnorm"/>
                                 <code value="248656"/>
                                 <display value="Azithromycin 500 MG Oral Tablet"/>
                              </valueCoding>
                           </extension>
                        </extension>
                        <reference value="urn:uuid:0035fb5b-39a7-470b-9596-1faff7b2c5c6"/>
                     </entry>
                  </section>
                  <section>
                     <title value="Problems"/>
                     <code>
                        <coding>
                           <system value="http://loinc.org"/>
                           <code value="11450-4"/>
                           <display value="Problem List"/>
                        </coding>
                     </code>
                     <text>
                        <status value="generated"/>
                        <div xmlns="http://www.w3.org/1999/xhtml">
                           <table>
                              <thead>
                                 <tr>
                                    <th>Concern</th>
                                    <th>Concern Status</th>
                                    <th>Date(s)</th>
                                 </tr>
                              </thead>
                              <tbody>
                                 <tr>
                                    <td>Problem</td>
                                    <td>active</td>
                                    <td>NOV 7, 2020</td>
                                 </tr>
                                 <tr>
                                    <td>
                                       <ul>
                                          <li>
                                             <table>
                                                <thead>
                                                   <tr>
                                                      <th>Problem Type</th>
                                                      <th>Problem</th>
                                                      <th>Date(s)</th>
                                                   </tr>
                                                </thead>
                                                <tbody>
                                                   <tr>
                                                      <td>Symptom</td>
                                                      <td>Dark stools (finding)</td>
                                                      <td>NOV 1, 2020</td>
                                                   </tr>
                                                   <tr>
                                                      <td>Complaint</td>
                                                      <td>Paroxysmal cough (finding)</td>
                                                      <td>NOV 4, 2020</td>
                                                   </tr>
                                                </tbody>
                                             </table>
                                          </li>
                                       </ul>
                                    </td>
                                 </tr>
                              </tbody>
                           </table>
                           <table>
                              <thead>
                                 <tr>
                                    <th>Concern</th>
                                    <th>Concern Status</th>
                                    <th>Date(s)</th>
                                 </tr>
                              </thead>
                              <tbody>
                                 <tr>
                                    <td>Problem</td>
                                    <td>active</td>
                                    <td>MAY 23, 2020</td>
                                 </tr>
                              </tbody>
                           </table>
                        </div>
                     </text>
                     <!--2.16.840.1.113883.10.20.22.4.4-->
                     <!--2.16.840.1.113883.10.20.22.4.4:2015-08-01-->
                     <entry>
                        <reference value="urn:uuid:cf95d158-738b-4542-955b-2e5ecb36b43e"/>
                     </entry>
                     <!--2.16.840.1.113883.10.20.22.4.4-->
                     <!--2.16.840.1.113883.10.20.22.4.4:2015-08-01-->
                     <entry>
                        <reference value="urn:uuid:8003dbd7-7d4e-4170-8912-d10b0bc91c1a"/>
                     </entry>
                     <!--2.16.840.1.113883.10.20.22.4.4-->
                     <!--2.16.840.1.113883.10.20.22.4.4:2015-08-01-->
                     <entry>
                        <reference value="urn:uuid:e592287a-1f00-4a31-98f0-97f324286ece"/>
                     </entry>
                     <!--2.16.840.1.113883.10.20.22.4.4-->
                     <!--2.16.840.1.113883.10.20.22.4.4:2015-08-01-->
                     <entry>
                        <reference value="urn:uuid:bcda8616-95e9-4327-8b2a-2ff137f592b5"/>
                     </entry>
                  </section>
                  <section>
                     <title value="Chief Complaint"/>
                     <code>
                        <coding>
                           <system value="http://loinc.org"/>
                           <code value="10154-3"/>
                           <display value="Chief complaint Narrative - Reported"/>
                        </coding>
                     </code>
                     <text>
                        <status value="generated"/>
                        <div xmlns="http://www.w3.org/1999/xhtml">
                           <p>Chief Complaint (the patient's own description): Headache and rash</p>
                        </div>
                     </text>
                  </section>
                  <section>
                     <title value="Reason for Visit"/>
                     <code>
                        <coding>
                           <system value="http://loinc.org"/>
                           <code value="29299-5"/>
                           <display value="Reason for visit Narrative"/>
                        </coding>
                     </code>
                     <text>
                        <status value="generated"/>
                        <div xmlns="http://www.w3.org/1999/xhtml">
                           <p>Reason for Visit (as documented by provider): Headache, rash, and fever</p>
                        </div>
                     </text>
                  </section>
                  <section>
                     <title value="Results"/>
                     <code>
                        <coding>
                           <system value="http://loinc.org"/>
                           <code value="30954-2"/>
                           <display value="Relevant diagnostic tests and/or laboratory data"/>
                        </coding>
                     </code>
                     <text>
                        <status value="generated"/>
                        <div xmlns="http://www.w3.org/1999/xhtml">
                           <table>
                              <thead>
                                 <tr>
                                    <th>Results Panel</th>
                                    <th>Date(s)</th>
                                 </tr>
                              </thead>
                              <tbody>
                                 <tr>
                                    <td>CBC W Auto Differential panel in Blood</td>
                                    <td>NOV 7, 2020 to NOV 7, 2020</td>
                                 </tr>
                                 <tr>
                                    <td>
                                       <ul>
                                          <li>
                                             <table>
                                                <thead>
                                                   <tr>
                                                      <th>Test</th>
                                                      <th>Outcome</th>
                                                      <th>Interpretation</th>
                                                      <th>Date(s)</th>
                                                      <th>Reference Range</th>
                                                      <th>Reference Range Interpretation</th>
                                                      <th>Reference Range Description</th>
                                                   </tr>
                                                </thead>
                                                <tbody>
                                                   <tr>
                                                      <td>Hematocrit</td>
                                                      <td>35.3 %</td>
                                                      <td>Low</td>
                                                      <td>NOV 7, 2020</td>
                                                      <td>34.9 % to 44.5 %</td>
                                                      <td>Low</td>
                                                      <td>Low</td>
                                                   </tr>
                                                   <tr>
                                                      <td>Lymphocytes [#/​volume] in Blood by Automated count</td>
                                                      <td>5.2 10*3/uL</td>
                                                      <td>High</td>
                                                      <td>NOV 7, 2020</td>
                                                      <td>1.0 10*3/uL to 4.8 10*3/uL</td>
                                                      <td>Normal</td>
                                                      <td/>
                                                   </tr>
                                                </tbody>
                                             </table>
                                          </li>
                                       </ul>
                                    </td>
                                 </tr>
                              </tbody>
                           </table>
                           <table>
                              <thead>
                                 <tr>
                                    <th>Results Panel</th>
                                    <th>Date(s)</th>
                                 </tr>
                              </thead>
                              <tbody>
                                 <tr>
                                    <td>Bordetella pertussis Ab<br/>[Units/volume] in Serum</td>
                                    <td>NOV 7, 2020 to NOV 7, 2020</td>
                                 </tr>
                                 <tr>
                                    <td>
                                       <ul>
                                          <li>
                                             <table>
                                                <thead>
                                                   <tr>
                                                      <th>Initial Case Report Trigger<br/>Code Result Observation </th>
                                                      <th>Trigger Code</th>
                                                      <th>Trigger Code codeSystem</th>
                                                      <th>RCTC OID</th>
                                                      <th>RCTC Version</th>
                                                      <th>Outcome</th>
                                                      <th>Interpretation</th>
                                                      <th>Date(s)</th>
                                                      <th>Reference Range</th>
                                                      <th>Reference Range Interpretation</th>
                                                   </tr>
                                                </thead>
                                                <tbody>
                                                   <tr>
                                                      <td>Bordetella pertussis Ab<br/>[Units/volume] in Serum</td>
                                                      <td>11585-7</td>
                                                      <td>LOINC</td>
                                                      <td>2.16.840.1.114222.4.11.7508</td>
                                                      <td>19/05/2020</td>
                                                      <td>100 [iU]/mL</td>
                                                      <td>High</td>
                                                      <td>NOV 7, 2020</td>
                                                      <td> to 45 [iU]/mL</td>
                                                      <td>Normal</td>
                                                   </tr>
                                                </tbody>
                                             </table>
                                          </li>
                                       </ul>
                                    </td>
                                 </tr>
                              </tbody>
                           </table>
                           <table>
                              <thead>
                                 <tr>
                                    <th>Results Panel</th>
                                    <th>Date(s)</th>
                                 </tr>
                              </thead>
                              <tbody>
                                 <tr>
                                    <td>Bordetella pertussis [Presence]<br/>in Throat by Organism specific culture</td>
                                    <td>NOV 7, 2020 to NOV 7, 2020</td>
                                 </tr>
                                 <tr>
                                    <td>
                                       <ul>
                                          <li>
                                             <table>
                                                <thead>
                                                   <tr>
                                                      <th>Initial Case Report Trigger Code Result Observation </th>
                                                      <th>Trigger Code</th>
                                                      <th>Trigger Code codeSystem</th>
                                                      <th>RCTC OID</th>
                                                      <th>RCTC Version</th>
                                                      <th>Outcome</th>
                                                      <th>Trigger Code</th>
                                                      <th>Trigger Code codeSystem</th>
                                                      <th>RCTC OID</th>
                                                      <th>RCTC Version</th>
                                                      <th>Interpretation</th>
                                                      <th>Date(s)</th>
                                                   </tr>
                                                </thead>
                                                <tbody>
                                                   <tr>
                                                      <td>Bordetella pertussis [Presence]<br/>in Throat by Organism specific culture</td>
                                                      <td>548-8</td>
                                                      <td>LOINC</td>
                                                      <td>2.16.840.1.114222.4.11.7508</td>
                                                      <td>19/05/2020</td>
                                                      <td>Bordetella pertussis (organism)</td>
                                                      <td>5247005</td>
                                                      <td>SNOMED CT</td>
                                                      <td>2.16.840.1.114222.4.11.7508</td>
                                                      <td>19/05/2020</td>
                                                      <td>Abnormal</td>
                                                      <td>NOV 7, 2020</td>
                                                   </tr>
                                                </tbody>
                                             </table>
                                          </li>
                                       </ul>
                                    </td>
                                 </tr>
                              </tbody>
                           </table>
                        </div>
                     </text>
                     <!--2.16.840.1.113883.10.20.22.4.1-->
                     <!--2.16.840.1.113883.10.20.22.4.1:2015-08-01-->
                     <!--2.16.840.1.113883.10.20.15.2.3.35:2019-04-01-->
                     <entry>
                        <extension url="http://hl7.org/fhir/us/ecr/StructureDefinition/eicr-trigger-code-flag-extension">
                           <extension url="triggerCodeValueSet">
                              <valueOid value="urn:oid:2.16.840.1.114222.4.11.7508"/>
                           </extension>
                           <extension url="triggerCodeValueSetVersion">
                              <valueString value="2020-11-13"/>
                           </extension>
                           <extension url="triggerCode">
                              <valueCoding>
                                 <system value="http://loinc.org"/>
                                 <code value="57021-8"/>
                                 <display value="CBC W Auto Differential panel in Blood"/>
                              </valueCoding>
                           </extension>
                        </extension>
                        <reference value="urn:uuid:07963c5e-da15-4deb-98cf-d92c193ba5da"/>
                     </entry>
                     <!--2.16.840.1.113883.10.20.22.4.1-->
                     <!--2.16.840.1.113883.10.20.22.4.1:2015-08-01-->
                     <entry>
                        <extension url="http://hl7.org/fhir/us/ecr/StructureDefinition/eicr-trigger-code-flag-extension">
                           <extension url="triggerCodeValueSet">
                              <valueOid value="urn:oid:2.16.840.1.114222.4.11.7508"/>
                           </extension>
                           <extension url="triggerCodeValueSetVersion">
                              <valueString value="2020-11-13"/>
                           </extension>
                           <extension url="triggerCode">
                              <valueCoding>
                                 <system value="http://loinc.org"/>
                                 <code value="11585-7"/>
                                 <display value="Bordetella pertussis Ab [Units/volume] in Serum"/>
                              </valueCoding>
                           </extension>
                        </extension>
                        <reference value="urn:uuid:c7d5ff1e-27e2-439f-b01e-15828865a323"/>
                     </entry>
                     <!--2.16.840.1.113883.10.20.22.4.1-->
                     <!--2.16.840.1.113883.10.20.22.4.1:2015-08-01-->
                     <entry>
                        <extension url="http://hl7.org/fhir/us/ecr/StructureDefinition/eicr-trigger-code-flag-extension">
                           <extension url="triggerCodeValueSet">
                              <valueOid value="urn:oid:2.16.840.1.114222.4.11.7508"/>
                           </extension>
                           <extension url="triggerCodeValueSetVersion">
                              <valueString value="2020-11-13"/>
                           </extension>
                           <extension url="triggerCode">
                              <valueCoding>
                                 <system value="http://loinc.org"/>
                                 <code value="548-8"/>
                                 <display value="Bordetella pertussis [Presence] in Throat by Organism specific culture"/>
                              </valueCoding>
                           </extension>
                        </extension>
                        <extension url="http://hl7.org/fhir/us/ecr/StructureDefinition/eicr-trigger-code-flag-extension">
                           <extension url="triggerCodeValueSet">
                              <valueOid value="urn:oid:2.16.840.1.114222.4.11.7508"/>
                           </extension>
                           <extension url="triggerCodeValueSetVersion">
                              <valueString value="2020-11-13"/>
                           </extension>
                           <extension url="triggerCode">
                              <valueCoding>
                                 <system value="http://snomed.info/sct"/>
                                 <code value="5247005"/>
                                 <display value="Bordetella pertussis (organism)"/>
                              </valueCoding>
                           </extension>
                        </extension>
                        <reference value="urn:uuid:4aa5e159-3792-4739-9778-76e552c90da9"/>
                     </entry>
                  </section>
                  <section>
                     <title value="Procedures"/>
                     <code>
                        <coding>
                           <system value="http://loinc.org"/>
                           <code value="47519-4"/>
                           <display value="History of Procedures"/>
                        </coding>
                     </code>
                     <text>
                        <status value="additional"/>
                        <div xmlns="http://www.w3.org/1999/xhtml">
                           <table border="1" width="100%">
                              <thead>
                                 <tr>
                                    <th>Procedure</th>
                                    <th>Date</th>
                                 </tr>
                              </thead>
                              <tbody>
                                 <tr>
                                    <td>Colonic polypectomy</td>
                                    <td>November 15, 2020</td>
                                 </tr>
                              </tbody>
                           </table>
                        </div>
                     </text>
                     <!--2.16.840.1.113883.10.20.22.4.14:2014-06-09-->
                     <!--2.16.840.1.113883.10.20.22.4.14-->
                     <entry>
                        <reference value="urn:uuid:0ce37e8e-4b39-4741-86e0-5847db0ec128"/>
                     </entry>
                     <!--2.16.840.1.113883.10.20.22.4.13:2014-06-09-->
                     <!--2.16.840.1.113883.10.20.22.4.13-->
                     <entry>
                        <reference value="urn:uuid:55c95d63-20ee-4c9a-aea5-c1eb4a312747"/>
                     </entry>
                     <!--2.16.840.1.113883.10.20.22.4.14:2014-06-09-->
                     <!--2.16.840.1.113883.10.20.15.2.3.44:2021-01-01-->
                     <entry>
                        <extension url="http://hl7.org/fhir/us/ecr/StructureDefinition/eicr-trigger-code-flag-extension">
                           <extension url="triggerCodeValueSet">
                              <valueOid value="urn:oid:2.16.840.1.114222.4.11.7508"/>
                           </extension>
                           <extension url="triggerCodeValueSetVersion">
                              <valueString value="2020-11-13"/>
                           </extension>
                           <extension url="triggerCode">
                              <valueCoding>
                                 <system value="http://snomed.info/sct"/>
                                 <code value="233573008"/>
                                 <display value="Extracorporeal membrane oxygenation (procedure)"/>
                              </valueCoding>
                           </extension>
                        </extension>
                        <reference value="urn:uuid:382c0fda-12de-4b94-9d81-a5e4bcc9964b"/>
                     </entry>
                     <!--2.16.840.1.113883.10.20.22.4.12:2014-06-09-->
                     <!--2.16.840.1.113883.10.20.15.2.3.45:2021-01-01-->
                     <entry>
                        <extension url="http://hl7.org/fhir/us/ecr/StructureDefinition/eicr-trigger-code-flag-extension">
                           <extension url="triggerCodeValueSet">
                              <valueOid value="urn:oid:2.16.840.1.114222.4.11.7508"/>
                           </extension>
                           <extension url="triggerCodeValueSetVersion">
                              <valueString value="2020-11-13"/>
                           </extension>
                           <extension url="triggerCode">
                              <valueCoding>
                                 <system value="http://snomed.info/sct"/>
                                 <code value="409524006"/>
                                 <display value="Airborn precautions (procedure)"/>
                              </valueCoding>
                           </extension>
                        </extension>
                        <reference value="urn:uuid:0820aabb-e204-4388-9b61-9b6d8e97d7ae"/>
                     </entry>
                     <!--2.16.840.1.113883.10.20.22.4.13:2014-06-09-->
                     <!--2.16.840.1.113883.10.20.15.2.3.46:2021-01-01-->
                     <entry>
                        <extension url="http://hl7.org/fhir/us/ecr/StructureDefinition/eicr-trigger-code-flag-extension">
                           <extension url="triggerCodeValueSet">
                              <valueOid value="urn:oid:2.16.840.1.114222.4.11.7508"/>
                           </extension>
                           <extension url="triggerCodeValueSetVersion">
                              <valueString value="2020-11-13"/>
                           </extension>
                           <extension url="triggerCode">
                              <valueCoding>
                                 <system value="http://snomed.info/sct"/>
                                 <code value="385857005"/>
                                 <display value="Ventilator care and adjustment (regime/therapy)"/>
                              </valueCoding>
                           </extension>
                        </extension>
                        <reference value="urn:uuid:67edbd4b-90af-4f47-a213-643513189a91"/>
                     </entry>
                  </section>
                  <section>
                     <title value="Immunizations"/>
                     <code>
                        <coding>
                           <system value="http://loinc.org"/>
                           <code value="11369-6"/>
                           <display value="Hx of Immunization"/>
                        </coding>
                     </code>
                     <text>
                        <status value="additional"/>
                        <div xmlns="http://www.w3.org/1999/xhtml">
                           <table>
                              <thead>
                                 <tr>
                                    <th>Immunization</th>
                                    <th>Immunization Date</th>
                                 </tr>
                              </thead>
                              <tbody>
                                 <tr>
                                    <td>diphtheria, tetanus toxoids and acellular<br/>pertussis vaccine, 5 pertussis antigens</td>
                                    <td>NOV 11, 2020</td>
                                 </tr>
                              </tbody>
                           </table>
                           <table>
                              <thead>
                                 <tr>
                                    <th>Initial Case Report Trigger Code<br/>Immunization Medication Activity</th>
                                    <th>Immunization Date</th>
                                    <th>Trigger<br/>Code</th>
                                    <th>Trigger Code<br/>codeSystem</th>
                                    <th>RCTC OID</th>
                                    <th>RCTC<br/>Version</th>
                                 </tr>
                              </thead>
                              <tbody>
                                 <tr>
                                    <td>influenza virus vaccine, unspecified formulation</td>
                                    <td>NOV 11, 2020</td>
                                    <td>88</td>
                                    <td>CVX</td>
                                    <td>2.16.840.1.114222.4.11.7508</td>
                                    <td>19/05/2020</td>
                                 </tr>
                              </tbody>
                           </table>
                           <table>
                              <thead>
                                 <tr>
                                    <th>Vaccinne Credential Patient Assertion</th>
                                    <th>Assertion Date</th>
                                 </tr>
                              </thead>
                              <tbody>
                                 <tr>
                                    <td>Yes</td>
                                    <td>NOV 11, 2020</td>
                                 </tr>
                              </tbody>
                           </table>
                        </div>
                     </text>
                     <!--2.16.840.1.113883.10.20.22.4.52:2015-08-01-->
                     <entry>
                        <reference value="urn:uuid:8fe05a1b-c0a7-49a1-8fc6-b5a19b2e63c0"/>
                     </entry>
                     <!--2.16.840.1.113883.10.20.22.4.52:2015-08-01-->
                     <entry>
                        <extension url="http://hl7.org/fhir/us/ecr/StructureDefinition/eicr-trigger-code-flag-extension">
                           <extension url="triggerCodeValueSet">
                              <valueOid value="urn:oid:2.16.840.1.114222.4.11.7508"/>
                           </extension>
                           <extension url="triggerCodeValueSetVersion">
                              <valueString value="2020-11-13"/>
                           </extension>
                           <extension url="triggerCode">
                              <valueCoding>
                                 <system value="http://hl7.org/fhir/sid/cvx"/>
                                 <code value="24"/>
                                 <display value="anthrax vaccine"/>
                              </valueCoding>
                           </extension>
                        </extension>
                        <reference value="urn:uuid:a14bfe8a-d27d-4ec7-a81b-b2a37c2617ed"/>
                     </entry>
                     <!--2.16.840.1.113883.10.20.15.2.3.55:2021-01-01-->
                     <entry>
                        <reference value="urn:uuid:bc10caa6-d848-4d9f-9358-fad0bf379cbf"/>
                     </entry>
                  </section>
                  <section>
                     <title value="Social History"/>
                     <code>
                        <coding>
                           <system value="http://loinc.org"/>
                           <code value="29762-2"/>
                           <display value="Social History"/>
                        </coding>
                     </code>
                     <text>
                        <status value="additional"/>
                        <div xmlns="http://www.w3.org/1999/xhtml">
                           <table>
                              <thead>
                                 <tr>
                                    <th>Birth Sex</th>
                                    <th>Value</th>
                                    <th>Date</th>
                                 </tr>
                              </thead>
                              <tbody>
                                 <tr>
                                    <td>Sex Assigned At Birth</td>
                                    <td>Female</td>
                                    <td>NOV 24, 1974</td>
                                 </tr>
                              </tbody>
                           </table>
                           <table>
                              <thead>
                                 <tr>
                                    <th>Gender identity</th>
                                    <th>Date</th>
                                 </tr>
                              </thead>
                              <tbody>
                                 <tr>
                                    <td>Female-to-male transsexual (finding)</td>
                                    <td>JAN 1, 2020</td>
                                 </tr>
                              </tbody>
                           </table>
                           <table>
                              <thead>
                                 <tr>
                                    <th>Characteristics of Home Environment</th>
                                    <th>Date</th>
                                 </tr>
                              </thead>
                              <tbody>
                                 <tr>
                                    <td>Homeless</td>
                                    <td>NOV 9, 2020</td>
                                 </tr>
                              </tbody>
                           </table>
                           <table>
                              <thead>
                                 <tr>
                                    <th>Exposure/Contact Information</th>
                                    <th>Date</th>
                                    <th>Location</th>
                                    <th>Address</th>
                                 </tr>
                              </thead>
                              <tbody>
                                 <tr>
                                    <td>Mass Gathering: Football game</td>
                                    <td>November 11, 2020</td>
                                    <td>City Football Stadium</td>
                                    <td>99 Football Stadium Road, My City, AZ, 8562</td>
                                 </tr>
                              </tbody>
                           </table>
                           <table>
                              <thead>
                                 <tr>
                                    <th>Current Occupation</th>
                                    <th>Current Industry</th>
                                    <th>Current Job Title</th>
                                    <th>Current Employer Name</th>
                                    <th>Current Employer Address</th>
                                    <th>Current Employer Telcom</th>
                                    <th>Occupational Exposure</th>
                                 </tr>
                              </thead>
                              <tbody>
                                 <tr>
                                    <td>Nursing, psychiatric, and home health aides</td>
                                    <td>Accounting, tax preparation, bookkeeping, and payroll services</td>
                                    <td>Nurse</td>
                                    <td>University Hospital</td>
                                    <td>Peachtree Street, Atlanta, Georgia</td>
                                    <td>555-1212</td>
                                    <td>Nursing care facilities</td>
                                    <td>Asbestos</td>
                                 </tr>
                              </tbody>
                           </table>
                           <table>
                              <thead>
                                 <tr>
                                    <th>Usual Occupation</th>
                                    <th>Usual Industry</th>
                                 </tr>
                              </thead>
                              <tbody>
                                 <tr>
                                    <td>Nursing, psychiatric, and home health aides</td>
                                    <td>Nursing care facilities</td>
                                 </tr>
                              </tbody>
                           </table>
                           <table>
                              <thead>
                                 <tr>
                                    <th>Travel History: Date(s)</th>
                                    <th>Notes</th>
                                    <th>Location</th>
                                 </tr>
                              </thead>
                              <tbody>
                                 <tr>
                                    <td>1999 to 2007</td>
                                    <td>Spent 8 years in the UK during the BSE outbreak</td>
                                    <td/>
                                 </tr>
                                 <tr>
                                    <td>In the 3 weeks before NOV 9, 2020</td>
                                    <td/>
                                    <td>
                                       <ul>
                                          <li>Brazil</li>
                                       </ul>
                                    </td>
                                 </tr>
                                 <tr>
                                    <td>APR 25, 2020 to APR 30, 2020</td>
                                    <td/>
                                    <td>
                                       <ul>
                                          <li>Nadi, FJ</li>
                                       </ul>
                                    </td>
                                 </tr>
                                 <tr>
                                    <td>MAY 6, 2020 to MAY 15, 2020</td>
                                    <td/>
                                    <td>
                                       <ul>
                                          <li>Montreal, QC, CA</li>
                                       </ul>
                                    </td>
                                 </tr>
                                 <tr>
                                    <td>JUL 13, 2020 to JUL 15, 2020</td>
                                    <td/>
                                    <td>
                                       <ul>
                                          <li>Sydney, NSW, AU</li>
                                       </ul>
                                    </td>
                                 </tr>
                                 <tr>
                                    <td>OCT 22, 2020 to OCT 30, 2020</td>
                                    <td/>
                                    <td>
                                       <ul>
                                          <li>1170 N Rancho Robles Rd Oracle, AZ8562, US</li>
                                       </ul>
                                    </td>
                                 </tr>
                              </tbody>
                           </table>
                           <table>
                              <thead>
                                 <tr>
                                    <th>Country of Residence</th>
                                 </tr>
                              </thead>
                              <tbody>
                                 <tr>
                                    <td>United Kingdom of Great Britain and Northern Ireland</td>
                                 </tr>
                              </tbody>
                           </table>
                           <table>
                              <thead>
                                 <tr>
                                    <th>Country of Nationality</th>
                                 </tr>
                              </thead>
                              <tbody>
                                 <tr>
                                    <td>Australia</td>
                                 </tr>
                              </tbody>
                           </table>
                        </div>
                     </text>
                     <!--2.16.840.1.113883.10.20.22.4.109-->
                     <entry>
                        <reference value="urn:uuid:4a9820ea-3995-4396-8a6f-f96cb15e58c3"/>
                     </entry>
                     <!--2.16.840.1.113883.10.20.15.2.3.52:2021-01-01-->
                     <entry>
                        <reference value="urn:uuid:4420f5f4-83d0-4d58-9e09-126bc85439eb"/>
                     </entry>
                     <!--2.16.840.1.113883.10.20.15.2.3.52:2021-01-01-->
                     <entry>
                        <reference value="urn:uuid:e46790f8-ba9d-4d43-a4dc-cf293e3dc67c"/>
                     </entry>
                     <!--2.16.840.1.113883.10.20.15.2.3.52:2021-01-01-->
                     <entry>
                        <reference value="urn:uuid:497ea2c3-3f1d-4303-85ae-5617763cdfd0"/>
                     </entry>
                     <!--2.16.840.1.113883.10.20.15.2.3.1:2021-01-01-->
                     <entry>
                        <reference value="urn:uuid:88a1b878-ae02-48a4-b384-825f3da51aa8"/>
                     </entry>
                     <!--2.16.840.1.113883.10.20.15.2.3.1:2021-01-01-->
                     <entry>
                        <reference value="urn:uuid:23e7a3d7-f8bd-48ae-977b-adede78a4290"/>
                     </entry>
                     <!--2.16.840.1.113883.10.20.15.2.3.1:2021-01-01-->
                     <entry>
                        <reference value="urn:uuid:ae4afdff-b825-41b6-b27a-8b048fe26c6e"/>
                     </entry>
                     <!--2.16.840.1.113883.10.20.15.2.3.1:2021-01-01-->
                     <entry>
                        <reference value="urn:uuid:35377662-1db7-492b-8c99-2f5cb045d4e2"/>
                     </entry>
                     <!--2.16.840.1.113883.10.20.15.2.3.1:2021-01-01-->
                     <entry>
                        <reference value="urn:uuid:743e7d2c-4826-4bfe-bec2-940518c48f05"/>
                     </entry>
                     <!--2.16.840.1.113883.10.20.15.2.3.1:2021-01-01-->
                     <entry>
                        <reference value="urn:uuid:8fe8903f-ee18-4c5f-ba62-628bdcab1f3a"/>
                     </entry>
                     <!--2.16.840.1.113883.10.20.15.2.3.53:2021-01-01-->
                     <entry>
                        <reference value="urn:uuid:0ebcc0fb-b95f-410a-a2a7-8421185f7c46"/>
                     </entry>
                     <!--2.16.840.1.113883.10.20.15.2.3.54:2021-01-01-->
                     <entry>
                        <reference value="urn:uuid:aa7526e4-7c34-4693-a739-53e18167d07c"/>
                     </entry>
                     <!--2.16.840.1.113883.10.20.15.2.3.47:2021-01-01-->
                     <entry>
                        <reference value="urn:uuid:179d598b-6cda-472f-ac51-c8237d477540"/>
                     </entry>
                     <!--2.16.840.1.113883.10.20.15.2.3.48:2021-01-01-->
                     <entry>
                        <reference value="urn:uuid:09929d2e-a658-474a-b036-cdd92607d1e8"/>
                     </entry>
                     <!--2.16.840.1.113883.10.20.22.4.221:2020-09-01-->
                     <entry>
                        <reference value="urn:uuid:6575ef82-8753-4008-a93b-aba99dcbca48"/>
                     </entry>
                     <!--2.16.840.1.113883.10.20.22.4.217:2020-09-01-->
                     <entry>
                        <reference value="urn:uuid:f462a0ec-133c-4ccb-83ed-a18d5e6d7db7"/>
                     </entry>
                  </section>
                  <section>
                     <title value="Pregnancy Section"/>
                     <code>
                        <coding>
                           <system value="http://loinc.org"/>
                           <code value="90767-5"/>
                           <display value="Pregnancy summary Document"/>
                        </coding>
                     </code>
                     <text>
                        <status value="generated"/>
                        <div xmlns="http://www.w3.org/1999/xhtml">
                           <table>
                              <thead>
                                 <tr>
                                    <th>Pregnancy Status</th>
                                    <th>Date(s) over which status holds<br/>(if no high date, status was<br/>current at time of recording)</th>
                                    <th>Determination Method</th>
                                    <th>Determination Date</th>
                                    <th>Recorded Date</th>
                                 </tr>
                              </thead>
                              <tbody>
                                 <tr>
                                    <td>Pregnant</td>
                                    <td>AUG 26, 2017</td>
                                    <td>Diagnostic ultrasonography</td>
                                    <td>OCT 1, 2017</td>
                                    <td>OCT 1, 2017 10:35</td>
                                 </tr>
                                 <tr>
                                    <td>
                                       <ul>
                                          <li>
                                             <table>
                                                <thead>
                                                   <tr>
                                                      <th>Estimated Date of Delivery</th>
                                                      <th>EDD</th>
                                                      <th>EDD Determination Date</th>
                                                   </tr>
                                                </thead>
                                                <tbody>
                                                   <tr>
                                                      <td>Delivery date estimated from ovulation date</td>
                                                      <td>MAY 22, 2017</td>
                                                      <td>OCT 1, 2017 10:15</td>
                                                   </tr>
                                                </tbody>
                                             </table>
                                             <table>
                                                <thead>
                                                   <tr>
                                                      <th>Estimated Gestational Age of Pregnancy</th>
                                                      <th>Days</th>
                                                      <th>Determination Date</th>
                                                   </tr>
                                                </thead>
                                                <tbody>
                                                   <tr>
                                                      <td>Gestational age Estimated from selected delivery date</td>
                                                      <td>143 d</td>
                                                      <td>OCT 1, 2017 10:15</td>
                                                   </tr>
                                                   <tr>
                                                      <td>
                                                         <ul>
                                                            <li>
                                                               <table>
                                                                  <thead>
                                                                     <tr>
                                                                        <th>Reference to selected delivery date</th>
                                                                     </tr>
                                                                  </thead>
                                                                  <tbody>
                                                                     <tr>
                                                                        <td>Link to referenced entry</td>
                                                                     </tr>
                                                                  </tbody>
                                                               </table>
                                                            </li>
                                                         </ul>
                                                      </td>
                                                   </tr>
                                                </tbody>
                                             </table>
                                             <table>
                                                <thead>
                                                   <tr>
                                                      <th>Pregnancy Outcome</th>
                                                      <th>Birth Order</th>
                                                      <th>Time</th>
                                                      <th>Method of Delivery</th>
                                                   </tr>
                                                </thead>
                                                <tbody>
                                                   <tr>
                                                      <td>Stillbirth (finding)</td>
                                                      <td>1</td>
                                                      <td>JAN 5, 2020 08:50</td>
                                                      <td>Breech delivery (procedure)</td>
                                                   </tr>
                                                   <tr>
                                                      <td>Term birth of newborn (finding)</td>
                                                      <td>2</td>
                                                      <td>JAN 5, 2020 10:05</td>
                                                      <td>Breech delivery (procedure)</td>
                                                   </tr>
                                                </tbody>
                                             </table>
                                          </li>
                                       </ul>
                                    </td>
                                 </tr>
                              </tbody>
                           </table>
                           <table>
                              <thead>
                                 <tr>
                                    <th>Last menstrual period start date</th>
                                    <th>Observation Date</th>
                                 </tr>
                              </thead>
                              <tbody>
                                 <tr>
                                    <td>AUG 1, 2017</td>
                                    <td>JAN 5, 2020 10:15</td>
                                 </tr>
                              </tbody>
                           </table>
                           <table>
                              <thead>
                                 <tr>
                                    <th>Postpartum Status</th>
                                    <th>Observation date</th>
                                 </tr>
                              </thead>
                              <tbody>
                                 <tr>
                                    <td>Mid postpartum state (finding)</td>
                                    <td>JAN 5, 2020 10:15</td>
                                 </tr>
                              </tbody>
                           </table>
                        </div>
                     </text>
                     <!--2.16.840.1.113883.10.20.15.3.8-->
                     <!--2.16.840.1.113883.10.20.22.4.293:2020-04-01-->
                     <entry>
                        <reference value="urn:uuid:b262a1f7-361f-48f5-a3df-73dd9ab16037"/>
                     </entry>
                     <!--2.16.840.1.113883.10.20.30.3.34:2014-06-09-->
                     <entry>
                        <reference value="urn:uuid:c7cfbc79-0c39-48a6-9dc9-d85d311911f6"/>
                     </entry>
                     <!--2.16.840.1.113883.10.20.22.4.285:2020-04-01-->
                     <entry>
                        <reference value="urn:uuid:128a0df3-5012-4771-b815-879bfb2d98d8"/>
                     </entry>
                     <entry>
                        <reference value="urn:uuid:90ea3f05-8cb1-4189-9160-4f43de2b6990"/>
                     </entry>
                     <!--2.16.840.1.113883.10.20.22.4.284:2020-04-01-->
                     <entry>
                        <reference value="urn:uuid:94b56b09-330e-4efb-a487-7161d82067d3"/>
                     </entry>
                  </section>
                  <section>
                     <title value="Vital Signs (Last Filed)"/>
                     <code>
                        <coding>
                           <system value="http://loinc.org"/>
                           <code value="8716-3"/>
                           <display value="Vital Signs"/>
                        </coding>
                     </code>
                     <text>
                        <status value="generated"/>
                        <div xmlns="http://www.w3.org/1999/xhtml">
                           <table>
                              <thead>
                                 <tr>
                                    <th>Date</th>
                                    <th>Blood Pressure</th>
                                    <th>Pulse</th>
                                    <th>Temperature</th>
                                    <th>Respiratory Rate</th>
                                    <th>Height</th>
                                    <th>Weight</th>
                                    <th>BMI</th>
                                    <th>SpO2</th>
                                 </tr>
                              </thead>
                              <tbody>
                                 <tr>
                                    <td>05/20/2014 7:36pm</td>
                                    <td>
                                       <span>120</span>/<span>80</span>mm[Hg] </td>
                                    <td>80 /min</td>
                                    <td>99.0 F</td>
                                    <td>18 /min</td>
                                    <td>5'7 (67 inches)</td>
                                    <td>239.9 lbs</td>
                                    <td>37.58 kg/m2</td>
                                    <td>98%</td>
                                 </tr>
                              </tbody>
                           </table>
                        </div>
                     </text>
                     <!--2.16.840.1.113883.10.20.22.4.26-->
                     <!--2.16.840.1.113883.10.20.22.4.26:2015-08-01-->
                     <entry>
                        <reference value="urn:uuid:c0ea3855-1133-48b6-ade8-37ee97ffb771"/>
                     </entry>
                  </section>
                  <section>
                     <title value="Emergency Outbreak Information Section"/>
                     <code>
                        <coding>
                           <system value="http://loinc.org"/>
                           <code value="83910-0"/>
                           <display value="Public health Note"/>
                        </coding>
                     </code>
                     <text>
                        <status value="generated"/>
                        <div xmlns="http://www.w3.org/1999/xhtml">
                           <table>
                              <thead>
                                 <tr>
                                    <th>Information Type</th>
                                    <th>Information Date</th>
                                    <th>Result</th>
                                 </tr>
                              </thead>
                              <tbody>
                                 <tr>
                                    <td>Employee desk distance from mail sorter</td>
                                    <td>1 November 2020</td>
                                    <td>2 meters</td>
                                 </tr>
                              </tbody>
                           </table>
                        </div>
                     </text>
                     <!--2.16.840.1.113883.10.20.15.2.3.40:2021-01-01-->
                     <entry>
                        <reference value="urn:uuid:a740651c-08d2-4d4d-bab6-d0b48dc49227"/>
                     </entry>
                  </section>
                  <section>
                     <title value="Reportability Response Information Section"/>
                     <code>
                        <coding>
                           <system value="http://loinc.org"/>
                           <code value="88085-6"/>
                           <display value="Reportability response report Document Public health"/>
                        </coding>
                     </code>
                     <text>
                        <status value="generated"/>
                        <div xmlns="http://www.w3.org/1999/xhtml">
                           <table>
                              <thead>
                                 <tr>
                                    <th>TODO</th>
                                 </tr>
                              </thead>
                              <tbody>
                                 <tr>
                                    <td>TODO</td>
                                 </tr>
                              </tbody>
                           </table>
                        </div>
                     </text>
                     <!--2.16.840.1.113883.10.20.15.2.3.12:2017-04-01-->
                     <entry>
                        <reference value="urn:uuid:051a3f49-22ac-492e-a3c3-063315e8073f"/>
                     </entry>
                  </section>
               </Composition>
            </resource>
         </entry>
         <entry>
            <fullUrl value="urn:uuid:90936bef-baac-4092-aa76-aa6127036639"/>
            <resource>
               <Patient>
                  <meta>
                     <profile value="http://hl7.org/fhir/us/ecr/StructureDefinition/us-ph-patient"/>
                  </meta>
                  <text>
                     <status value="generated"/>
                     <div xmlns="http://www.w3.org/1999/xhtml">
                        <h1>Everywoman, Eve H</h1>
                        <p>Alternate name: Everywoman, Ruth L</p>
                        <p>Telecom: tel:+1-555-555-2003</p>
                        <p>Telecom: tel:+1-555-555-2004</p>
                        <p>Address: 2222 Home Street<br/>Ann Arbor<br/>MI<br/>99999<br/>26001<br/>US<br/>
                        </p>
                        <p>Gender: F</p>
                        <p>Birthdate: 1974-11-24</p>
                        <p>Language: en</p>
                     </div>
                  </text>
                  <extension url="http://hl7.org/fhir/us/core/StructureDefinition/us-core-race">
                     <extension url="ombCategory">
                        <valueCoding>
                           <system value="urn:oid:2.16.840.1.113883.6.238"/>
                           <code value="2106-3"/>
                           <display value="White"/>
                        </valueCoding>
                     </extension>
                     <extension url="text">
                        <valueString value="White"/>
                     </extension>
                  </extension>
                  <extension url="http://hl7.org/fhir/us/core/StructureDefinition/us-core-ethnicity">
                     <extension url="ombCategory">
                        <valueCoding>
                           <system value="urn:oid:2.16.840.1.113883.6.238"/>
                           <code value="2186-5"/>
                           <display value="Not Hispanic or Latino"/>
                        </valueCoding>
                     </extension>
                     <extension url="text">
                        <valueString value="Not Hispanic or Latino"/>
                     </extension>
                  </extension>
                  <extension url="http://hl7.org/fhir/us/core/StructureDefinition/us-core-birthsex">
                     <valueCode value="F"/>
                  </extension>
                  <extension url="http://hl7.org/fhir/StructureDefinition/patient-genderIdentity">
                     <valueCodeableConcept>
                        <coding>
                           <system value="http://snomed.info/sct"/>
                           <code value="407377005"/>
                           <display value="Female-to-male transsexual (finding)"/>
                        </coding>
                     </valueCodeableConcept>
                  </extension>
                  <identifier>
                     <system value="urn:oid:2.16.840.1.113883.19.5"/>
                     <value value="123453"/>
                  </identifier>
                  <identifier>
                     <system value="http://hl7.org/fhir/sid/us-ssn"/>
                     <value value="444-22-2222"/>
                  </identifier>
                  <name>
                     <use value="usual"/>
                     <text value="Everywoman, Eve H (usual name)"/>
                     <family value="Everywoman"/>
                     <given value="Eve"/>
                     <given value="H"/>
                  </name>
                  <name>
                     <text value="Everywoman, Ruth L"/>
                     <family value="Everywoman"/>
                     <given value="Ruth"/>
                     <given value="L"/>
                  </name>
                  <telecom>
                     <system value="phone"/>
                     <value value="+1-555-555-2003"/>
                     <use value="home"/>
                  </telecom>
                  <telecom>
                     <system value="phone"/>
                     <value value="+1-555-555-2004"/>
                     <use value="work"/>
                  </telecom>
                  <gender value="female"/>
                  <birthDate value="1974-11-24"/>
                  <deceasedBoolean value="false"/>
                  <address>
                     <use value="home"/>
                     <line value="2222 Home Street"/>
                     <city value="Ann Arbor"/>
                     <district value="26001"/>
                     <state value="MI"/>
                     <postalCode value="99999"/>
                     <country value="US"/>
                     <period>
                        <start value="2000-07-20T08:45:00+10:00"/>
                     </period>
                  </address>
                  <contact>
                     <relationship>
                        <coding>
                           <system value="http://terminology.hl7.org/CodeSystem/v3-RoleClass"/>
                           <code value="GUARD"/>
                        </coding>
                     </relationship>
                     <name>
                        <use value="usual"/>
                        <text value="Mum, Martha L (usual name)"/>
                        <family value="Mum"/>
                        <given value="Martha"/>
                        <given value="L"/>
                     </name>
                     <telecom>
                        <system value="phone"/>
                        <value value="+1-555-555-2006"/>
                        <use value="home"/>
                     </telecom>
                     <telecom>
                        <system value="email"/>
                        <value value="mail@guardian.com"/>
                     </telecom>
                     <address>
                        <use value="home"/>
                        <line value="4444 Home Street"/>
                        <city value="Ann Arbor"/>
                        <state value="MI"/>
                        <postalCode value="99999"/>
                        <country value="US"/>
                     </address>
                  </contact>
                  <communication>
                     <language>
                        <coding>
                           <system value="urn:ietf:bcp:47"/>
                           <code value="en"/>
                        </coding>
                     </language>
                     <preferred value="true"/>
                  </communication>
               </Patient>
            </resource>
         </entry>
         <entry>
            <fullUrl value="urn:uuid:7614354c-edd5-4202-bfcc-340b2812d3fb"/>
            <resource>
               <Encounter><!--In Encounter-->
                  <meta>
                     <profile value="http://hl7.org/fhir/us/ecr/StructureDefinition/eicr-encounter"/>
                     <!--CDA participant: ClinicalDocument[templateId/@root='2.16.840.1.113883.10.20.15.2'][templateId/@extension='2021-01-01']/componentOf/encompassingEncounter-->
                  </meta>
                  <text>
                     <status value="generated"/>
                     <div xmlns="http://www.w3.org/1999/xhtml">
                        <table>
                           <thead>
                              <tr>
                                 <th>Encounter</th>
                                 <th>Date(s)</th>
                                 <th>Location</th>
                              </tr>
                           </thead>
                           <tbody>
                              <tr>
                                 <td>Office outpatient visit 15 minutes</td>
                                 <td>NOV 7, 2020</td>
                                 <td>
                                    <ul>
                                       <li>
                                          <span class="Italics">Urgent Care Center</span>
                                       </li>
                                    </ul>
                                 </td>
                              </tr>
                              <tr>
                                 <td>
                                    <ul>
                                       <li>
                                          <table>
                                             <thead>
                                                <tr>
                                                   <th>Encounter Diagnosis Type</th>
                                                </tr>
                                             </thead>
                                             <tbody>
                                                <tr>
                                                   <td>Diagnosis</td>
                                                </tr>
                                                <tr>
                                                   <td>
                                                      <ul>
                                                         <li>
                                                            <table>
                                                               <thead>
                                                                  <tr>
                                                                     <th>Initial Case Report Trigger<br/>Code Problem Observation </th>
                                                                     <th>Problem</th>
                                                                     <th>Trigger Code</th>
                                                                     <th>Trigger Code codeSystem</th>
                                                                     <th>RCTC OID</th>
                                                                     <th>RCTC Version</th>
                                                                     <th>Date(s)</th>
                                                                  </tr>
                                                               </thead>
                                                               <tbody>
                                                                  <tr>
                                                                     <td>Diagnosis</td>
                                                                     <td>Pertussis (disorder)</td>
                                                                     <td>27836007</td>
                                                                     <td>SNOMED CT</td>
                                                                     <td>2.16.840.1.114222.4.11.7508</td>
                                                                     <td>19/05/2020</td>
                                                                     <td>NOV 7, 2020</td>
                                                                  </tr>
                                                               </tbody>
                                                            </table>
                                                            <table>
                                                               <thead>
                                                                  <tr>
                                                                     <th>Encounter Diagnosis Type</th>
                                                                  </tr>
                                                               </thead>
                                                               <tbody>
                                                                  <tr>
                                                                     <td>Diagnosis</td>
                                                                  </tr>
                                                                  <tr>
                                                                     <td>
                                                                        <ul>
                                                                           <li>
                                                                              <table>
                                                                                 <thead>
                                                                                    <tr>
                                                                                       <th>Problem Type</th>
                                                                                       <th>Problem</th>
                                                                                       <th>Date(s)</th>
                                                                                    </tr>
                                                                                 </thead>
                                                                                 <tbody>
                                                                                    <tr>
                                                                                       <td>Diagnosis</td>
                                                                                       <td>A non-trigger code diagnosis (disorder)</td>
                                                                                       <td>NOV 7, 2020</td>
                                                                                    </tr>
                                                                                 </tbody>
                                                                              </table>
                                                                           </li>
                                                                        </ul>
                                                                     </td>
                                                                  </tr>
                                                               </tbody>
                                                            </table>
                                                         </li>
                                                      </ul>
                                                   </td>
                                                </tr>
                                             </tbody>
                                          </table>
                                       </li>
                                    </ul>
                                 </td>
                              </tr>
                           </tbody>
                        </table>
                        <p>...</p>
                     </div>
                  </text>
                  <identifier>
                     <system value="urn:oid:2.16.840.1.113883.19"/>
                     <value value="9937012"/>
                  </identifier>
                  <status value="in-progress"/>
                  <class>
                     <system value="http://terminology.hl7.org/CodeSystem/v3-ActCode"/>
                     <code value="AMB"/>
                  </class>
                  <type>
                     <coding>
                        <system value="http://terminology.hl7.org/CodeSystem/v3-ActCode"/>
                        <code value="AMB"/>
                        <display value="Ambulatory"/>
                     </coding>
                  </type>
                  <subject>
                     <reference value="urn:uuid:90936bef-baac-4092-aa76-aa6127036639"/>
                  </subject>
                  <participant><!--In participant-->
                     <type>
                        <coding>
                           <system value="http://terminology.hl7.org/CodeSystem/v3-ParticipationType"/>
                           <code value="ATND"/>
                        </coding>
                     </type>
                     <individual>
                        <reference value="urn:uuid:98edf9c6-06b3-4298-a6fa-48cdb013b0a4"/>
                     </individual>
                  </participant>
                  <period>
                     <start value="2020-11-07"/>
                  </period>
                  <diagnosis>
                     <extension url="http://hl7.org/fhir/us/ecr/StructureDefinition/eicr-trigger-code-flag-extension">
                        <extension url="triggerCodeValueSet">
                           <valueOid value="urn:oid:2.16.840.1.114222.4.11.7508"/>
                        </extension>
                        <extension url="triggerCodeValueSetVersion">
                           <valueString value="2020-11-13"/>
                        </extension>
                        <extension url="triggerCode">
                           <valueCoding>
                              <system value="http://snomed.info/sct"/>
                              <code value="27836007"/>
                              <display value="Pertussis (disorder)"/>
                           </valueCoding>
                        </extension>
                     </extension>
                     <condition><!--2.16.840.1.113883.10.20.22.4.4--><!--2.16.840.1.113883.10.20.22.4.4:2015-08-01--><!--2.16.840.1.113883.10.20.15.2.3.3:2019-04-01-->
                        <reference value="urn:uuid:3b52a215-d35e-4c97-a048-9c4af319c781"/>
                     </condition>
                  </diagnosis>
                  <diagnosis>
                     <condition><!--2.16.840.1.113883.10.20.22.4.4--><!--2.16.840.1.113883.10.20.22.4.4:2015-08-01-->
                        <reference value="urn:uuid:72034895-e370-44ca-b812-d99a7f674889"/>
                     </condition>
                  </diagnosis>
                  <location>
                     <location>
                        <reference value="urn:uuid:5d667fe7-e588-4d75-8286-f4e76a61b0e7"/>
                     </location>
                  </location>
                  <serviceProvider>
                     <reference value="urn:uuid:9318f634-f6f5-45bd-8804-6b4ce5c74701"/>
                  </serviceProvider>
               </Encounter>
            </resource>
         </entry>
         <entry>
            <fullUrl value="urn:uuid:98edf9c6-06b3-4298-a6fa-48cdb013b0a4"/>
            <resource>
               <PractitionerRole>
                  <meta>
                     <profile value="http://hl7.org/fhir/us/ecr/StructureDefinition/us-ph-practitionerrole"/>
                  </meta>
                  <!--responsibleParty/assignedEntity-->
                  <identifier>
                     <system value="http://hl7.org/fhir/sid/us-npi"/>
                     <value value="6666666666666"/>
                  </identifier>
                  <practitioner>
                     <reference value="urn:uuid:c921c262-13f0-40ed-8212-2288a0d245f2"/>
                  </practitioner>
                  <organization>
                     <reference value="urn:uuid:f9e7b861-0ae0-4e1a-bae3-5c574c4929af"/>
                  </organization>
                  <telecom>
                     <system value="phone"/>
                     <value value="+1(555)555-1003"/>
                     <use value="work"/>
                  </telecom>
                  <telecom>
                     <system value="fax"/>
                     <value value="+1(555)555-1234"/>
                     <use value="work"/>
                  </telecom>
                  <telecom>
                     <system value="email"/>
                     <value value="mail@provider_domain.com"/>
                     <use value="work"/>
                  </telecom>
               </PractitionerRole>
            </resource>
         </entry>
         <entry>
            <fullUrl value="urn:uuid:c921c262-13f0-40ed-8212-2288a0d245f2"/>
            <resource>
               <Practitioner><!--assignedEntity[cda:id[@root="2.16.840.1.113883.4.6"]]/assignedPerson-->
                  <meta>
                     <profile value="http://hl7.org/fhir/us/core/StructureDefinition/us-core-practitioner"/>
                  </meta>
                  <text>
                     <status value="generated"/>
                     <div xmlns="http://www.w3.org/1999/xhtml">
                        <p>Name: Seven, Henry</p>
                        <p>---TODO: ID info---</p>
                        <p>Telephone: tel:+1(555)555-1003 fax:+1(555)555-1234 mailto:mail@provider_domain.com</p>
                     </div>
                  </text>
                  <identifier>
                     <system value="http://hl7.org/fhir/sid/us-npi"/>
                     <value value="6666666666666"/>
                  </identifier>
                  <name>
                     <text value="Seven, M.D., Henry"/>
                     <family value="Seven"/>
                     <given value="Henry"/>
                     <suffix value="M.D."/>
                  </name>
                  <telecom>
                     <system value="phone"/>
                     <value value="+1(555)555-1003"/>
                     <use value="work"/>
                  </telecom>
                  <telecom>
                     <system value="fax"/>
                     <value value="+1(555)555-1234"/>
                     <use value="work"/>
                  </telecom>
                  <telecom>
                     <system value="email"/>
                     <value value="mail@provider_domain.com"/>
                     <use value="work"/>
                  </telecom>
                  <address>
                     <line value="1002 Healthcare Drive"/>
                     <city value="Ann Arbor"/>
                     <state value="MI"/>
                     <postalCode value="99999"/>
                     <country value="US"/>
                  </address>
               </Practitioner>
            </resource>
         </entry>
         <entry>
            <fullUrl value="urn:uuid:f9e7b861-0ae0-4e1a-bae3-5c574c4929af"/>
            <resource>
               <Organization>
                  <meta>
                     <profile value="http://hl7.org/fhir/us/ecr/StructureDefinition/us-ph-organization"/>
                     <!--CDA participant: ClinicalDocument[templateId/@root='2.16.840.1.113883.10.20.15.2'][templateId/@extension='2021-01-01']/componentOf/encompassingEncounter/responsibleParty/assignedEntity/representedOrganization-->
                  </meta>
                  <identifier>
                     <system value="urn:ietf:rfc:3986"/>
                     <value value="urn:uuid:f9e7b861-0ae0-4e1a-bae3-5c574c4929af"/>
                  </identifier>
                  <active value="true"/>
                  <name value="Community Health and Hospitals"/>
                  <telecom>
                     <system value="phone"/>
                     <value value="+1(555)555-1003"/>
                     <use value="work"/>
                  </telecom>
                  <telecom>
                     <system value="fax"/>
                     <value value="+1(555)555-1234"/>
                     <use value="work"/>
                  </telecom>
                  <telecom>
                     <system value="email"/>
                     <value value="mail@provider_domain.com"/>
                     <use value="work"/>
                  </telecom>
                  <address>
                     <line value="1002 Healthcare Drive"/>
                     <city value="Ann Arbor"/>
                     <state value="MI"/>
                     <postalCode value="99999"/>
                     <country value="US"/>
                  </address>
               </Organization>
            </resource>
         </entry>
         <entry>
            <fullUrl value="urn:uuid:5d667fe7-e588-4d75-8286-f4e76a61b0e7"/>
            <resource>
               <Location>
                  <meta>
                     <profile value="http://hl7.org/fhir/us/ecr/StructureDefinition/eicr-location"/>
                     <!--CDA participant: ClinicalDocument[templateId/@root='2.16.840.1.113883.10.20.15.2'][templateId/@extension='2021-01-01']/componentOf/encompassingEncounter/location-->
                  </meta>
                  <identifier>
                     <system value="http://hl7.org/fhir/sid/us-npi"/>
                     <value value="77777777777"/>
                  </identifier>
                  <name value="Good Health Hospital"/>
                  <type>
                     <coding>
                        <system value="http://terminology.hl7.org/CodeSystem/v3-RoleCode"/>
                        <code value="OF"/>
                        <display value="Outpatient facility"/>
                     </coding>
                  </type>
                  <telecom>
                     <system value="phone"/>
                     <value value="1+(555)-555-1212"/>
                     <use value="work"/>
                  </telecom>
                  <telecom>
                     <system value="fax"/>
                     <value value="1+(555)-555-3333"/>
                     <use value="work"/>
                  </telecom>
                  <address>
                     <line value="1000 Hospital Lane"/>
                     <city value="Ann Arbor"/>
                     <state value="MI"/>
                     <postalCode value="99999"/>
                     <country value="US"/>
                  </address>
               </Location>
            </resource>
         </entry>
         <entry>
            <fullUrl value="urn:uuid:9318f634-f6f5-45bd-8804-6b4ce5c74701"/>
            <resource>
               <Organization>
                  <meta>
                     <profile value="http://hl7.org/fhir/us/ecr/StructureDefinition/us-ph-organization"/>
                     <!--CDA participant: ClinicalDocument[templateId/@root='2.16.840.1.113883.10.20.15.2'][templateId/@extension='2021-01-01']/componentOf/encompassingEncounter/location/healthCareFacility/serviceProviderOrganization-->
                  </meta>
                  <identifier>
                     <system value="urn:ietf:rfc:3986"/>
                     <value value="urn:uuid:9318f634-f6f5-45bd-8804-6b4ce5c74701"/>
                  </identifier>
                  <active value="true"/>
                  <name value="Good Health Hospital"/>
                  <telecom>
                     <system value="phone"/>
                     <value value="1+(555)-555-1212"/>
                     <use value="work"/>
                  </telecom>
                  <telecom>
                     <system value="fax"/>
                     <value value="1+(555)-555-3333"/>
                     <use value="work"/>
                  </telecom>
                  <address>
                     <line value="1000 Hospital Lane"/>
                     <city value="Ann Arbor"/>
                     <state value="MI"/>
                     <postalCode value="99999"/>
                     <country value="US"/>
                  </address>
               </Organization>
            </resource>
         </entry>
         <entry>
            <fullUrl value="urn:uuid:40903564-f9a0-4927-b2c6-b11cb1ef1159"/>
            <resource>
               <Location><!--cda:assignedAuthor[cda:assignedAuthoringDevice]-->
                  <telecom>
                     <system value="phone"/>
                     <value value="+1-(555)555-1212;ext=9998"/>
                     <use value="work"/>
                  </telecom>
                  <address>
                     <line value="1002 Healthcare Drive"/>
                     <city value="Ann Arbor"/>
                     <state value="MI"/>
                     <postalCode value="99999"/>
                     <country value="US"/>
                  </address>
               </Location>
            </resource>
         </entry>
         <entry>
            <fullUrl value="urn:uuid:095cef6e-49c1-43f1-94d3-52b72bba4ae0"/>
            <resource>
               <Device>
                  <identifier>
                     <system value="urn:ietf:rfc:3986"/>
                     <value value="urn:oid:2.16.840.1.113883.3.72.5.20"/>
                  </identifier>
                  <!--cda:assignedAuthoringDevice-->
                  <modelNumber value="Acme"/>
                  <version>
                     <value value="NI"/>
                  </version>
                  <location>
                     <reference value="urn:uuid:40903564-f9a0-4927-b2c6-b11cb1ef1159"/>
                  </location>
               </Device>
            </resource>
         </entry>
         <entry>
            <fullUrl value="urn:uuid:43454e64-40bd-4b0f-b9da-97f1882de54d"/>
            <resource>
               <PractitionerRole>
                  <meta>
                     <profile value="http://hl7.org/fhir/us/ecr/StructureDefinition/us-ph-practitionerrole"/>
                  </meta>
                  <!--author/assignedAuthor-->
                  <identifier>
                     <system value="urn:ietf:rfc:3986"/>
                     <value value="urn:uuid:ec399842-7c0d-4cfc-ada3-f11a799d0460"/>
                  </identifier>
                  <practitioner>
                     <reference value="urn:uuid:b1b87907-e62c-4831-9088-93a0d89bda6f"/>
                  </practitioner>
                  <organization>
                     <reference value="urn:uuid:03936a95-9de5-4ee5-b07e-34a947a654d2"/>
                  </organization>
                  <code>
                     <coding>
                        <system value="http://nucc.org/provider-taxonomy"/>
                        <code value="183500000X"/>
                        <display value="Pharmacist"/>
                     </coding>
                  </code>
                  <telecom>
                     <system value="phone"/>
                     <value value="+1(555)555-1004"/>
                     <use value="work"/>
                  </telecom>
               </PractitionerRole>
            </resource>
         </entry>
         <entry>
            <fullUrl value="urn:uuid:b1b87907-e62c-4831-9088-93a0d89bda6f"/>
            <resource>
               <Practitioner><!--assignedAuthor[cda:id[@root="ec399842-7c0d-4cfc-ada3-f11a799d0460"]]/assignedPerson-->
                  <meta>
                     <profile value="http://hl7.org/fhir/us/core/StructureDefinition/us-core-practitioner"/>
                  </meta>
                  <text>
                     <status value="generated"/>
                     <div xmlns="http://www.w3.org/1999/xhtml">
                        <p>Name: Pharmacist, Registered</p>
                        <p>---TODO: ID info---</p>
                        <p>Telephone: tel:+1(555)555-1004</p>
                     </div>
                  </text>
                  <identifier>
                     <system value="urn:ietf:rfc:3986"/>
                     <value value="urn:uuid:ec399842-7c0d-4cfc-ada3-f11a799d0460"/>
                  </identifier>
                  <name>
                     <text value="Pharmacist, RPh, Registered"/>
                     <family value="Pharmacist"/>
                     <given value="Registered"/>
                     <suffix value="RPh"/>
                  </name>
                  <telecom>
                     <system value="phone"/>
                     <value value="+1(555)555-1004"/>
                     <use value="work"/>
                  </telecom>
                  <address>
                     <line value="1004 Pharmacy Drive"/>
                     <city value="Portland"/>
                     <state value="OR"/>
                     <postalCode value="99123"/>
                     <country value="US"/>
                  </address>
               </Practitioner>
            </resource>
         </entry>
         <entry>
            <fullUrl value="urn:uuid:03936a95-9de5-4ee5-b07e-34a947a654d2"/>
            <resource>
               <Organization>
                  <meta>
                     <profile value="http://hl7.org/fhir/us/ecr/StructureDefinition/us-ph-organization"/>
                     <!--CDA participant: ClinicalDocument[templateId/@root='2.16.840.1.113883.10.20.15.2'][templateId/@extension='2021-01-01']/author/assignedAuthor/representedOrganization-->
                     <profile value="http://hl7.org/fhir/us/ecr/StructureDefinition/us-ph-organization"/>
                     <!--CDA participant: ClinicalDocument[templateId/@root='2.16.840.1.113883.10.20.15.2'][templateId/@extension='2021-01-01']/author/assignedAuthor/representedOrganization-->
                  </meta>
                  <identifier>
                     <system value="urn:ietf:rfc:3986"/>
                     <value value="urn:oid:2.16.840.1.113883.19.5"/>
                  </identifier>
                  <active value="true"/>
                  <name value="The Pharmacy Alliance Health Group"/>
                  <telecom>
                     <system value="phone"/>
                     <value value="+1(555)555-1004"/>
                     <use value="work"/>
                  </telecom>
                  <address>
                     <line value="1004 Pharmacy Drive"/>
                     <city value="Portland"/>
                     <state value="OR"/>
                     <postalCode value="99123"/>
                     <country value="US"/>
                  </address>
               </Organization>
            </resource>
         </entry>
         <entry>
            <fullUrl value="urn:uuid:0584ebaa-95aa-4798-8b2e-6e42d12314e1"/>
            <resource>
               <Organization>
                  <meta>
                     <profile value="http://hl7.org/fhir/us/ecr/StructureDefinition/us-ph-organization"/>
                     <!--CDA participant: ClinicalDocument[templateId/@root='2.16.840.1.113883.10.20.15.2'][templateId/@extension='2021-01-01']/custodian/assignedCustodian/representedCustodianOrganization-->
                  </meta>
                  <identifier>
                     <system value="http://hl7.org/fhir/sid/us-npi"/>
                     <value value="88888888"/>
                  </identifier>
                  <active value="true"/>
                  <name value="Good Health Hospital"/>
                  <telecom>
                     <system value="phone"/>
                     <value value="+1(555)555-1212"/>
                     <use value="work"/>
                  </telecom>
                  <address>
                     <line value="1000 Hospital Lane"/>
                     <city value="Ann Arbor"/>
                     <state value="MI"/>
                     <postalCode value="99999"/>
                     <country value="US"/>
                  </address>
               </Organization>
            </resource>
         </entry>
         <entry>
            <fullUrl value="urn:uuid:1dccf10c-9a26-4ab2-8dcc-c4e6cfc3e22a"/>
            <resource>
               <MedicationRequest>
                  <meta>
                     <profile value="http://hl7.org/fhir/us/core/StructureDefinition/us-core-medicationrequest"/>
                  </meta>
                  <identifier>
                     <system value="urn:ietf:rfc:3986"/>
                     <value value="urn:uuid:cdbd33f0-6cde-11db-9fe1-0800200c9a67"/>
                  </identifier>
                  <status value="active"/>
                  <intent value="order"/>
                  <medicationCodeableConcept>
                     <coding>
                        <system value="http://www.nlm.nih.gov/research/umls/rxnorm"/>
                        <code value="832679"/>
                        <display value="Bacillus anthracis strain V770-NP1-R antigens 0.1 MG/ML Injectable"/>
                     </coding>
                  </medicationCodeableConcept>
                  <subject>
                     <reference value="urn:uuid:90936bef-baac-4092-aa76-aa6127036639"/>
                  </subject>
                  <authoredOn value="2020-11-07T09:44:21.000-05:00"/>
                  <requester>
                     <reference value="urn:uuid:98edf9c6-06b3-4298-a6fa-48cdb013b0a4"/>
                  </requester>
                  <dosageInstruction/>
               </MedicationRequest>
            </resource>
         </entry>
         <entry>
            <fullUrl value="urn:uuid:5c777252-70f8-448e-8fee-063f1806c7b8"/>
            <resource>
               <ServiceRequest>
                  <meta>
                     <profile value="http://hl7.org/fhir/us/ecr/StructureDefinition/eicr-servicerequest"/>
                  </meta>
                  <identifier>
                     <system value="urn:ietf:rfc:3986"/>
                     <value value="urn:uuid:b52bee94-c34b-4e2c-8c15-5ad9d6def205"/>
                  </identifier>
                  <status value="active"/>
                  <intent value="order"/>
                  <code>
                     <coding>
                        <system value="http://loinc.org"/>
                        <code value="80825-3"/>
                        <display value="Zika virus envelope (E) gene [Presence] in Serum by Probe and target amplification method"/>
                     </coding>
                  </code>
                  <subject>
                     <reference value="urn:uuid:90936bef-baac-4092-aa76-aa6127036639"/>
                  </subject>
                  <occurrenceDateTime value="2020-11-08"/>
               </ServiceRequest>
            </resource>
         </entry>
         <entry>
            <fullUrl value="urn:uuid:101855f8-45e6-4dc5-850b-898e31997096"/>
            <resource>
               <ServiceRequest>
                  <meta>
                     <profile value="http://hl7.org/fhir/us/ecr/StructureDefinition/eicr-servicerequest"/>
                  </meta>
                  <identifier>
                     <system value="urn:ietf:rfc:3986"/>
                     <value value="urn:uuid:9a6d1bac-17d3-4195-89c4-1121bc809b5a"/>
                  </identifier>
                  <status value="active"/>
                  <intent value="order"/>
                  <code>
                     <coding>
                        <system value="http://snomed.info/sct"/>
                        <code value="233573008"/>
                        <display value="Extracorporeal membrane oxygenation (procedure)"/>
                     </coding>
                  </code>
                  <subject>
                     <reference value="urn:uuid:90936bef-baac-4092-aa76-aa6127036639"/>
                  </subject>
                  <occurrenceDateTime value="2020-11-08"/>
                  <requester>
                     <reference value="urn:uuid:98edf9c6-06b3-4298-a6fa-48cdb013b0a4"/>
                  </requester>
               </ServiceRequest>
            </resource>
         </entry>
         <entry>
            <fullUrl value="urn:uuid:3eecb35e-04a8-42ca-8cbe-b2901cc610da"/>
            <resource>
               <ServiceRequest>
                  <meta>
                     <profile value="http://hl7.org/fhir/us/ecr/StructureDefinition/eicr-servicerequest"/>
                  </meta>
                  <identifier>
                     <system value="urn:ietf:rfc:3986"/>
                     <value value="urn:uuid:7658963e-54da-496f-bf18-dea1dddaa3b0"/>
                  </identifier>
                  <status value="active"/>
                  <intent value="plan"/>
                  <code>
                     <coding>
                        <system value="http://snomed.info/sct"/>
                        <code value="409524006"/>
                        <display value="Airborne precautions (procedure)"/>
                     </coding>
                  </code>
                  <subject>
                     <reference value="urn:uuid:90936bef-baac-4092-aa76-aa6127036639"/>
                  </subject>
                  <occurrenceDateTime value="2020-11-08"/>
               </ServiceRequest>
            </resource>
         </entry>
         <entry>
            <fullUrl value="urn:uuid:4ec80321-3464-4a73-bd1b-a00afd06a83b"/>
            <resource>
               <ServiceRequest>
                  <meta>
                     <profile value="http://hl7.org/fhir/us/ecr/StructureDefinition/eicr-servicerequest"/>
                  </meta>
                  <identifier>
                     <system value="urn:ietf:rfc:3986"/>
                     <value value="urn:uuid:b52bee94-c34b-4e2c-8c15-5ad9d6def204"/>
                  </identifier>
                  <status value="active"/>
                  <intent value="plan"/>
                  <code>
                     <coding>
                        <system value="http://snomed.info/sct"/>
                        <code value="385857005"/>
                        <display value="Ventilator care and adjustment (regime/therapy)"/>
                     </coding>
                  </code>
                  <subject>
                     <reference value="urn:uuid:90936bef-baac-4092-aa76-aa6127036639"/>
                  </subject>
                  <occurrenceDateTime value="2020-11-08"/>
               </ServiceRequest>
            </resource>
         </entry>
         <entry>
            <fullUrl value="urn:uuid:d617168b-bae6-44f4-8b0b-1e1288629766"/>
            <resource>
               <ServiceRequest>
                  <meta>
                     <profile value="http://hl7.org/fhir/us/ecr/StructureDefinition/eicr-servicerequest"/>
                  </meta>
                  <identifier>
                     <system value="urn:ietf:rfc:3986"/>
                     <value value="urn:uuid:b52bee94-c34b-4e2c-8c15-5ad9d6def202"/>
                  </identifier>
                  <status value="active"/>
                  <intent value="plan"/>
                  <code>
                     <coding>
                        <system value="http://snomed.info/sct"/>
                        <code value="363680008"/>
                        <display value="Radiographic imaging procedure (procedure)"/>
                     </coding>
                  </code>
                  <subject>
                     <reference value="urn:uuid:90936bef-baac-4092-aa76-aa6127036639"/>
                  </subject>
                  <occurrenceDateTime value="2020-11-08"/>
               </ServiceRequest>
            </resource>
         </entry>
         <entry>
            <fullUrl value="urn:uuid:3b52a215-d35e-4c97-a048-9c4af319c781"/>
            <resource>
               <Condition>
                  <meta>
                     <profile value="http://hl7.org/fhir/us/ecr/StructureDefinition/us-ph-condition"/>
                  </meta>
                  <identifier>
                     <system value="urn:ietf:rfc:3986"/>
                     <value value="urn:uuid:db734647-fc99-424c-a864-7e3cda82e705"/>
                  </identifier>
                  <clinicalStatus>
                     <coding>
                        <system value="http://terminology.hl7.org/CodeSystem/condition-clinical"/>
                        <code value="resolved"/>
                     </coding>
                  </clinicalStatus>
                  <category>
                     <coding>
                        <system value="http://terminology.hl7.org/CodeSystem/condition-category"/>
                        <code value="encounter-diagnosis"/>
                     </coding>
                  </category>
                  <code>
                     <coding>
                        <system value="http://snomed.info/sct"/>
                        <code value="27836007"/>
                        <display value="Pertussis (disorder)"/>
                     </coding>
                  </code>
                  <subject>
                     <reference value="urn:uuid:90936bef-baac-4092-aa76-aa6127036639"/>
                  </subject>
                  <onsetDateTime value="2020-11-07"/>
                  <asserter>
                     <reference value="urn:uuid:98edf9c6-06b3-4298-a6fa-48cdb013b0a4"/>
                  </asserter>
               </Condition>
            </resource>
         </entry>
         <entry>
            <fullUrl value="urn:uuid:72034895-e370-44ca-b812-d99a7f674889"/>
            <resource>
               <Condition>
                  <meta>
                     <profile value="http://hl7.org/fhir/us/ecr/StructureDefinition/us-ph-condition"/>
                  </meta>
                  <identifier>
                     <system value="urn:ietf:rfc:3986"/>
                     <value value="urn:uuid:db734647-fc99-424c-a864-7e3cda82e704"/>
                  </identifier>
                  <clinicalStatus>
                     <coding>
                        <system value="http://terminology.hl7.org/CodeSystem/condition-clinical"/>
                        <code value="resolved"/>
                     </coding>
                  </clinicalStatus>
                  <category>
                     <coding>
                        <system value="http://terminology.hl7.org/CodeSystem/condition-category"/>
                        <code value="encounter-diagnosis"/>
                     </coding>
                  </category>
                  <code>
                     <coding>
                        <system value="http://snomed.info/sct"/>
                        <code value="282291009"/>
                        <display value="A non-trigger code diagnosis (disorder)"/>
                     </coding>
                  </code>
                  <subject>
                     <reference value="urn:uuid:90936bef-baac-4092-aa76-aa6127036639"/>
                  </subject>
                  <onsetDateTime value="2020-11-07"/>
                  <asserter>
                     <reference value="urn:uuid:98edf9c6-06b3-4298-a6fa-48cdb013b0a4"/>
                  </asserter>
               </Condition>
            </resource>
         </entry>
         <entry>
            <fullUrl value="urn:uuid:0035fb5b-39a7-470b-9596-1faff7b2c5c6"/>
            <resource>
               <MedicationAdministration><!--No profiles found for any of the following templates: urn:hl7ii:2.16.840.1.113883.10.20.22.4.16urn:hl7ii:2.16.840.1.113883.10.20.22.4.16:2014-06-09-->
                  <extension url="http://hl7.org/fhir/us/ecr/StructureDefinition/therapeutic-medication-response-extension">
                     <valueCodeableConcept>
                        <coding>
                           <system value="http://snomed.info/sct"/>
                           <code value="268910001"/>
                           <display value="Patient's condition improved (finding)"/>
                        </coding>
                     </valueCodeableConcept>
                  </extension>
                  <identifier>
                     <system value="urn:ietf:rfc:3986"/>
                     <value value="urn:uuid:6c844c75-aa34-411c-b7bd-5e4a9f206e29"/>
                  </identifier>
                  <status value="completed"/>
                  <medicationCodeableConcept>
                     <coding>
                        <system value="http://www.nlm.nih.gov/research/umls/rxnorm"/>
                        <code value="248656"/>
                        <display value="Azithromycin 500 MG Oral Tablet"/>
                     </coding>
                  </medicationCodeableConcept>
                  <subject>
                     <reference value="urn:uuid:90936bef-baac-4092-aa76-aa6127036639"/>
                  </subject>
                  <effectiveDateTime value="2020-11-07T11:15:00.000-07:00"/>
                  <performer>
                     <actor>
                        <reference value="urn:uuid:98edf9c6-06b3-4298-a6fa-48cdb013b0a4"/>
                     </actor>
                  </performer>
                  <dosage>
                     <route>
                        <coding>
                           <system value="http://ncimeta.nci.nih.gov"/>
                           <code value="C38288"/>
                           <display value="ORAL"/>
                        </coding>
                     </route>
                     <dose>
                        <value value="1"/>
                        <unit value="g"/>
                     </dose>
                  </dosage>
               </MedicationAdministration>
            </resource>
         </entry>
         <entry>
            <fullUrl value="urn:uuid:cf95d158-738b-4542-955b-2e5ecb36b43e"/>
            <resource>
               <Condition>
                  <meta>
                     <profile value="http://hl7.org/fhir/us/ecr/StructureDefinition/us-ph-condition"/>
                  </meta>
                  <identifier>
                     <system value="urn:ietf:rfc:3986"/>
                     <value value="urn:uuid:ab1791b0-5c71-11db-b0de-0800200c9a66"/>
                  </identifier>
                  <clinicalStatus>
                     <coding>
                        <system value="http://terminology.hl7.org/CodeSystem/condition-clinical"/>
                        <code value="active"/>
                     </coding>
                  </clinicalStatus>
                  <category>
                     <coding>
                        <system value="http://terminology.hl7.org/CodeSystem/v3-ActClass"/>
                        <code value="CONC"/>
                        <display value="Concern"/>
                     </coding>
                  </category>
                  <code>
                     <coding>
                        <system value="http://snomed.info/sct"/>
                        <code value="35064005"/>
                        <display value="Dark stools (finding)"/>
                     </coding>
                  </code>
                  <subject>
                     <reference value="urn:uuid:90936bef-baac-4092-aa76-aa6127036639"/>
                  </subject>
                  <onsetDateTime value="2020-11-01"/>
                  <asserter>
                     <reference value="urn:uuid:98edf9c6-06b3-4298-a6fa-48cdb013b0a4"/>
                  </asserter>
               </Condition>
            </resource>
         </entry>
         <entry>
            <fullUrl value="urn:uuid:8003dbd7-7d4e-4170-8912-d10b0bc91c1a"/>
            <resource>
               <Condition>
                  <meta>
                     <profile value="http://hl7.org/fhir/us/ecr/StructureDefinition/us-ph-condition"/>
                  </meta>
                  <identifier>
                     <system value="urn:ietf:rfc:3986"/>
                     <value value="urn:uuid:ab1791b0-5c71-11db-b0de-0800200c9a67"/>
                  </identifier>
                  <clinicalStatus>
                     <coding>
                        <system value="http://terminology.hl7.org/CodeSystem/condition-clinical"/>
                        <code value="active"/>
                     </coding>
                  </clinicalStatus>
                  <category>
                     <coding>
                        <system value="http://terminology.hl7.org/CodeSystem/v3-ActClass"/>
                        <code value="CONC"/>
                        <display value="Concern"/>
                     </coding>
                  </category>
                  <code>
                     <coding>
                        <system value="http://snomed.info/sct"/>
                        <code value="43025008"/>
                        <display value="Paroxysmal cough (finding)"/>
                     </coding>
                  </code>
                  <subject>
                     <reference value="urn:uuid:90936bef-baac-4092-aa76-aa6127036639"/>
                  </subject>
                  <onsetDateTime value="2020-11-04"/>
                  <asserter>
                     <reference value="urn:uuid:98edf9c6-06b3-4298-a6fa-48cdb013b0a4"/>
                  </asserter>
               </Condition>
            </resource>
         </entry>
         <entry>
            <fullUrl value="urn:uuid:e592287a-1f00-4a31-98f0-97f324286ece"/>
            <resource>
               <Condition>
                  <meta>
                     <profile value="http://hl7.org/fhir/us/ecr/StructureDefinition/us-ph-condition"/>
                  </meta>
                  <identifier>
                     <system value="urn:ietf:rfc:3986"/>
                     <value value="urn:uuid:ab1791b0-5c71-11db-b0de-0800200c9a66"/>
                  </identifier>
                  <clinicalStatus>
                     <coding>
                        <system value="http://terminology.hl7.org/CodeSystem/condition-clinical"/>
                        <code value="active"/>
                     </coding>
                  </clinicalStatus>
                  <category>
                     <coding>
                        <system value="http://terminology.hl7.org/CodeSystem/v3-ActClass"/>
                        <code value="CONC"/>
                        <display value="Concern"/>
                     </coding>
                  </category>
                  <code>
                     <coding>
                        <system value="http://snomed.info/sct"/>
                        <code value="35064005"/>
                        <display value="Dark stools (finding)"/>
                     </coding>
                  </code>
                  <subject>
                     <reference value="urn:uuid:90936bef-baac-4092-aa76-aa6127036639"/>
                  </subject>
                  <onsetDateTime value="2020-11-01"/>
                  <asserter>
                     <reference value="urn:uuid:98edf9c6-06b3-4298-a6fa-48cdb013b0a4"/>
                  </asserter>
               </Condition>
            </resource>
         </entry>
         <entry>
            <fullUrl value="urn:uuid:bcda8616-95e9-4327-8b2a-2ff137f592b5"/>
            <resource>
               <Condition>
                  <meta>
                     <profile value="http://hl7.org/fhir/us/ecr/StructureDefinition/us-ph-condition"/>
                  </meta>
                  <identifier>
                     <system value="urn:ietf:rfc:3986"/>
                     <value value="urn:uuid:ab1791b0-5c71-11db-b0de-0800200c9a67"/>
                  </identifier>
                  <clinicalStatus>
                     <coding>
                        <system value="http://terminology.hl7.org/CodeSystem/condition-clinical"/>
                        <code value="active"/>
                     </coding>
                  </clinicalStatus>
                  <category>
                     <coding>
                        <system value="http://terminology.hl7.org/CodeSystem/v3-ActClass"/>
                        <code value="CONC"/>
                        <display value="Concern"/>
                     </coding>
                  </category>
                  <code>
                     <coding>
                        <system value="http://snomed.info/sct"/>
                        <code value="43025008"/>
                        <display value="Paroxysmal cough (finding)"/>
                     </coding>
                  </code>
                  <subject>
                     <reference value="urn:uuid:90936bef-baac-4092-aa76-aa6127036639"/>
                  </subject>
                  <onsetDateTime value="2020-11-04"/>
                  <asserter>
                     <reference value="urn:uuid:98edf9c6-06b3-4298-a6fa-48cdb013b0a4"/>
                  </asserter>
               </Condition>
            </resource>
         </entry>
         <entry>
            <fullUrl value="urn:uuid:07963c5e-da15-4deb-98cf-d92c193ba5da"/>
            <resource>
               <Observation>
                  <meta>
                     <profile value="http://hl7.org/fhir/us/core/StructureDefinition/us-core-observation-lab"/>
                     <!--CDA templateId: urn:hl7ii:2.16.840.1.113883.10.20.22.4.1:2015-08-01-->
                  </meta>
                  <identifier>
                     <system value="urn:ietf:rfc:3986"/>
                     <value value="urn:uuid:7d5a02b0-67a4-11db-bd13-0800200c9a66"/>
                  </identifier>
                  <status value="final"/>
                  <category>
                     <coding>
                        <system value="http://terminology.hl7.org/CodeSystem/observation-category"/>
                        <code value="laboratory"/>
                     </coding>
                  </category>
                  <code>
                     <coding>
                        <system value="http://loinc.org"/>
                        <code value="57021-8"/>
                        <display value="CBC W Auto Differential panel in Blood"/>
                     </coding>
                  </code>
                  <subject>
                     <reference value="urn:uuid:90936bef-baac-4092-aa76-aa6127036639"/>
                  </subject>
                  <effectivePeriod>
                     <start value="2020-11-07"/>
                     <end value="2020-11-07"/>
                  </effectivePeriod>
                  <performer>
                     <reference value="urn:uuid:98edf9c6-06b3-4298-a6fa-48cdb013b0a4"/>
                  </performer>
                  <specimen><!--2.16.840.1.113883.10.20.22.4.415:2018-09-01-->
                     <reference value="urn:uuid:d1d0f69c-5ed0-48d9-a04e-779706a54887"/>
                  </specimen>
                  <hasMember><!--2.16.840.1.113883.10.20.22.4.2--><!--2.16.840.1.113883.10.20.22.4.2:2015-08-01-->
                     <reference value="urn:uuid:34b1c376-0aee-4f26-83d6-7ddc53834cfb"/>
                  </hasMember>
                  <hasMember><!--2.16.840.1.113883.10.20.22.4.2--><!--2.16.840.1.113883.10.20.22.4.2:2015-08-01-->
                     <reference value="urn:uuid:e4c58ea5-b02b-4b3c-94f5-ec626a3a0ef2"/>
                  </hasMember>
               </Observation>
            </resource>
         </entry>
         <entry>
            <fullUrl value="urn:uuid:34b1c376-0aee-4f26-83d6-7ddc53834cfb"/>
            <resource>
               <Observation>
                  <meta>
                     <profile value="http://hl7.org/fhir/us/core/StructureDefinition/us-core-observation-lab"/>
                     <!--CDA templateId: urn:hl7ii:2.16.840.1.113883.10.20.22.4.2:2015-08-01-->
                  </meta>
                  <identifier>
                     <system value="urn:ietf:rfc:3986"/>
                     <value value="urn:uuid:7c0704bb-9c40-41b5-9c7d-26b2d59e234f"/>
                  </identifier>
                  <status value="final"/>
                  <category>
                     <coding>
                        <system value="http://terminology.hl7.org/CodeSystem/observation-category"/>
                        <code value="laboratory"/>
                     </coding>
                  </category>
                  <code>
                     <coding>
                        <system value="http://loinc.org"/>
                        <code value="20570-8"/>
                        <display value="Hematocrit"/>
                     </coding>
                  </code>
                  <subject>
                     <reference value="urn:uuid:90936bef-baac-4092-aa76-aa6127036639"/>
                  </subject>
                  <effectiveDateTime value="2020-11-07"/>
                  <performer>
                     <reference value="urn:uuid:98edf9c6-06b3-4298-a6fa-48cdb013b0a4"/>
                  </performer>
                  <valueQuantity>
                     <value value="35.3"/>
                     <unit value="%"/>
                  </valueQuantity>
                  <interpretation>
                     <coding>
                        <system value="http://terminology.hl7.org/CodeSystem/v3-ObservationInterpretation"/>
                        <code value="L"/>
                        <display value="Low"/>
                     </coding>
                  </interpretation>
                  <referenceRange>
                     <low>
                        <value value="34.9"/>
                        <unit value="%"/>
                     </low>
                     <high>
                        <value value="44.5"/>
                        <unit value="%"/>
                     </high>
                     <text value="Low"/>
                  </referenceRange>
               </Observation>
            </resource>
         </entry>
         <entry>
            <fullUrl value="urn:uuid:e4c58ea5-b02b-4b3c-94f5-ec626a3a0ef2"/>
            <resource>
               <Observation>
                  <meta>
                     <profile value="http://hl7.org/fhir/us/core/StructureDefinition/us-core-observation-lab"/>
                     <!--CDA templateId: urn:hl7ii:2.16.840.1.113883.10.20.22.4.2:2015-08-01-->
                  </meta>
                  <identifier>
                     <system value="urn:ietf:rfc:3986"/>
                     <value value="urn:uuid:7c0704bb-9c40-41b5-9c7d-26b2d59e234g"/>
                  </identifier>
                  <status value="final"/>
                  <category>
                     <coding>
                        <system value="http://terminology.hl7.org/CodeSystem/observation-category"/>
                        <code value="laboratory"/>
                     </coding>
                  </category>
                  <code>
                     <coding>
                        <system value="http://loinc.org"/>
                        <code value="731-0"/>
                        <display value="Lymphocytes [#/​volume] in Blood by Automated count"/>
                     </coding>
                  </code>
                  <subject>
                     <reference value="urn:uuid:90936bef-baac-4092-aa76-aa6127036639"/>
                  </subject>
                  <effectiveDateTime value="2020-11-07"/>
                  <performer>
                     <reference value="urn:uuid:98edf9c6-06b3-4298-a6fa-48cdb013b0a4"/>
                  </performer>
                  <valueQuantity>
                     <value value="5.2"/>
                     <unit value="10*3/uL"/>
                  </valueQuantity>
                  <interpretation>
                     <coding>
                        <system value="http://terminology.hl7.org/CodeSystem/v3-ObservationInterpretation"/>
                        <code value="H"/>
                        <display value="High"/>
                     </coding>
                  </interpretation>
                  <referenceRange>
                     <low>
                        <value value="1.0"/>
                        <unit value="10*3/uL"/>
                     </low>
                     <high>
                        <value value="4.8"/>
                        <unit value="10*3/uL"/>
                     </high>
                  </referenceRange>
               </Observation>
            </resource>
         </entry>
         <entry>
            <fullUrl value="urn:uuid:d1d0f69c-5ed0-48d9-a04e-779706a54887"/>
            <resource>
               <Specimen><!--No profiles found for any of the following templates: urn:hl7ii:2.16.840.1.113883.10.20.22.4.415:2018-09-01-->
                  <identifier>
                     <system value="urn:ietf:rfc:3986"/>
                     <value value="urn:uuid:44fd0410-6115-4b8e-8ee9-a51b3817df66"/>
                  </identifier>
                  <type>
                     <coding>
                        <system value="http://snomed.info/sct"/>
                        <code value="119297000"/>
                        <display value="Blood specimen (specimen)"/>
                     </coding>
                  </type>
                  <collection>
                     <collectedPeriod>
                        <start value="2020-03-09"/>
                     </collectedPeriod>
                     <bodySite>
                        <coding>
                           <system value="http://snomed.info/sct"/>
                           <code value="368208006"/>
                           <display value="Left upper arm structure (body structure)"/>
                        </coding>
                     </bodySite>
                  </collection>
               </Specimen>
            </resource>
         </entry>
         <entry>
            <fullUrl value="urn:uuid:c7d5ff1e-27e2-439f-b01e-15828865a323"/>
            <resource>
               <Observation>
                  <meta>
                     <profile value="http://hl7.org/fhir/us/core/StructureDefinition/us-core-observation-lab"/>
                     <!--CDA templateId: urn:hl7ii:2.16.840.1.113883.10.20.22.4.1:2015-08-01-->
                  </meta>
                  <identifier>
                     <system value="urn:ietf:rfc:3986"/>
                     <value value="urn:uuid:a4307cb2-b3b4-4f42-be03-1d9077376f4a"/>
                  </identifier>
                  <status value="final"/>
                  <category>
                     <coding>
                        <system value="http://terminology.hl7.org/CodeSystem/observation-category"/>
                        <code value="laboratory"/>
                     </coding>
                  </category>
                  <code>
                     <coding>
                        <system value="http://loinc.org"/>
                        <code value="11585-7"/>
                        <display value="Bordetella pertussis Ab [Units/volume] in Serum"/>
                     </coding>
                  </code>
                  <subject>
                     <reference value="urn:uuid:90936bef-baac-4092-aa76-aa6127036639"/>
                  </subject>
                  <effectivePeriod>
                     <start value="2020-11-07"/>
                     <end value="2020-11-07"/>
                  </effectivePeriod>
                  <performer>
                     <reference value="urn:uuid:98edf9c6-06b3-4298-a6fa-48cdb013b0a4"/>
                  </performer>
                  <hasMember><!--2.16.840.1.113883.10.20.22.4.2--><!--2.16.840.1.113883.10.20.22.4.2:2015-08-01--><!--2.16.840.1.113883.10.20.15.2.3.2:2019-04-01-->
                     <reference value="urn:uuid:ea128e1a-ebc4-431f-b676-0c10ea5bbec2"/>
                  </hasMember>
               </Observation>
            </resource>
         </entry>
         <entry>
            <fullUrl value="urn:uuid:ea128e1a-ebc4-431f-b676-0c10ea5bbec2"/>
            <resource>
               <Observation>
                  <meta>
                     <profile value="http://hl7.org/fhir/us/core/StructureDefinition/us-core-observation-lab"/>
                     <!--CDA templateId: urn:hl7ii:2.16.840.1.113883.10.20.22.4.2:2015-08-01-->
                  </meta>
                  <identifier>
                     <system value="urn:ietf:rfc:3986"/>
                     <value value="urn:uuid:bf9c0a26-4524-4395-b3ce-100450b9c9ad"/>
                  </identifier>
                  <status value="final"/>
                  <category>
                     <coding>
                        <system value="http://terminology.hl7.org/CodeSystem/observation-category"/>
                        <code value="laboratory"/>
                     </coding>
                  </category>
                  <code>
                     <coding>
                        <system value="http://loinc.org"/>
                        <code value="11585-7"/>
                        <display value="Bordetella pertussis Ab [Units/volume] in Serum"/>
                     </coding>
                  </code>
                  <subject>
                     <reference value="urn:uuid:90936bef-baac-4092-aa76-aa6127036639"/>
                  </subject>
                  <effectiveDateTime value="2020-11-07"/>
                  <performer>
                     <reference value="urn:uuid:98edf9c6-06b3-4298-a6fa-48cdb013b0a4"/>
                  </performer>
                  <valueQuantity>
                     <value value="100"/>
                     <unit value="[iU]/mL"/>
                  </valueQuantity>
                  <interpretation>
                     <coding>
                        <system value="http://terminology.hl7.org/CodeSystem/v3-ObservationInterpretation"/>
                        <code value="H"/>
                        <display value="High"/>
                     </coding>
                  </interpretation>
                  <referenceRange>
                     <high>
                        <value value="45"/>
                        <unit value="[iU]/mL"/>
                     </high>
                  </referenceRange>
               </Observation>
            </resource>
         </entry>
         <entry>
            <fullUrl value="urn:uuid:4aa5e159-3792-4739-9778-76e552c90da9"/>
            <resource>
               <Observation>
                  <meta>
                     <profile value="http://hl7.org/fhir/us/core/StructureDefinition/us-core-observation-lab"/>
                     <!--CDA templateId: urn:hl7ii:2.16.840.1.113883.10.20.22.4.1:2015-08-01-->
                  </meta>
                  <identifier>
                     <system value="urn:ietf:rfc:3986"/>
                     <value value="urn:uuid:a4307cb2-b3b4-4f42-be03-1d9077376f4b"/>
                  </identifier>
                  <status value="final"/>
                  <category>
                     <coding>
                        <system value="http://terminology.hl7.org/CodeSystem/observation-category"/>
                        <code value="laboratory"/>
                     </coding>
                  </category>
                  <code>
                     <coding>
                        <system value="http://loinc.org"/>
                        <code value="548-8"/>
                        <display value="Bordetella pertussis [Presence] in Throat by Organism specific culture"/>
                     </coding>
                  </code>
                  <subject>
                     <reference value="urn:uuid:90936bef-baac-4092-aa76-aa6127036639"/>
                  </subject>
                  <effectivePeriod>
                     <start value="2020-11-07"/>
                     <end value="2020-11-07"/>
                  </effectivePeriod>
                  <performer>
                     <reference value="urn:uuid:98edf9c6-06b3-4298-a6fa-48cdb013b0a4"/>
                  </performer>
                  <hasMember><!--2.16.840.1.113883.10.20.22.4.2--><!--2.16.840.1.113883.10.20.22.4.2:2015-08-01--><!--2.16.840.1.113883.10.20.15.2.3.2:2019-04-01-->
                     <reference value="urn:uuid:5e875bfa-2ac4-4093-aa24-e475dc05ee1a"/>
                  </hasMember>
               </Observation>
            </resource>
         </entry>
         <entry>
            <fullUrl value="urn:uuid:5e875bfa-2ac4-4093-aa24-e475dc05ee1a"/>
            <resource>
               <Observation>
                  <meta>
                     <profile value="http://hl7.org/fhir/us/core/StructureDefinition/us-core-observation-lab"/>
                     <!--CDA templateId: urn:hl7ii:2.16.840.1.113883.10.20.22.4.2:2015-08-01-->
                  </meta>
                  <identifier>
                     <system value="urn:ietf:rfc:3986"/>
                     <value value="urn:uuid:bf9c0a26-4524-4395-b3ce-100450b9c9ac"/>
                  </identifier>
                  <status value="final"/>
                  <category>
                     <coding>
                        <system value="http://terminology.hl7.org/CodeSystem/observation-category"/>
                        <code value="laboratory"/>
                     </coding>
                  </category>
                  <code>
                     <coding>
                        <system value="urn:oid:2.16.840.1.113883.1.2.3.665"/>
                        <code value="local_code_pertussis"/>
                        <display value="Bordetella pertussis in Throat by Organism specific culture"/>
                     </coding>
                     <coding>
                        <system value="http://loinc.org"/>
                        <code value="548-8"/>
                        <display value="Bordetella pertussis [Presence] in Throat by Organism specific culture"/>
                     </coding>
                  </code>
                  <subject>
                     <reference value="urn:uuid:90936bef-baac-4092-aa76-aa6127036639"/>
                  </subject>
                  <effectiveDateTime value="2020-11-07"/>
                  <performer>
                     <reference value="urn:uuid:98edf9c6-06b3-4298-a6fa-48cdb013b0a4"/>
                  </performer>
                  <valueCodeableConcept>
                     <coding>
                        <system value="http://snomed.info/sct"/>
                        <code value="5247005"/>
                        <display value="Bordetella pertussis (organism)"/>
                     </coding>
                  </valueCodeableConcept>
                  <interpretation>
                     <coding>
                        <system value="http://terminology.hl7.org/CodeSystem/v3-ObservationInterpretation"/>
                        <code value="A"/>
                        <display value="Abnormal"/>
                     </coding>
                  </interpretation>
               </Observation>
            </resource>
         </entry>
         <entry>
            <fullUrl value="urn:uuid:0ce37e8e-4b39-4741-86e0-5847db0ec128"/>
            <resource>
               <Procedure><!--No profiles found for any of the following templates: urn:hl7ii:2.16.840.1.113883.10.20.22.4.14:2014-06-09urn:hl7ii:2.16.840.1.113883.10.20.22.4.14-->
                  <identifier>
                     <system value="urn:ietf:rfc:3986"/>
                     <value value="urn:uuid:d68b7e32-7810-4f5b-9cc2-acd54b0fd85d"/>
                  </identifier>
                  <status value="completed"/>
                  <code>
                     <coding>
                        <system value="http://snomed.info/sct"/>
                        <code value="73761001"/>
                        <display value="Colonoscopy"/>
                     </coding>
                  </code>
                  <subject>
                     <reference value="urn:uuid:90936bef-baac-4092-aa76-aa6127036639"/>
                  </subject>
                  <performedPeriod>
                     <start value="2020-11-15"/>
                     <end value="2020-11-15"/>
                  </performedPeriod>
                  <asserter>
                     <reference value="urn:uuid:98edf9c6-06b3-4298-a6fa-48cdb013b0a4"/>
                  </asserter>
               </Procedure>
            </resource>
         </entry>
         <entry>
            <fullUrl value="urn:uuid:55c95d63-20ee-4c9a-aea5-c1eb4a312747"/>
            <resource>
               <Procedure>
                  <meta>
                     <profile value="http://hl7.org/fhir/us/core/StructureDefinition/us-core-procedure"/>
                     <!--CDA templateId: urn:hl7ii:2.16.840.1.113883.10.20.22.4.13:2014-06-09-->
                  </meta>
                  <identifier>
                     <system value="urn:ietf:rfc:3986"/>
                     <value value="urn:uuid:6dab0739-749d-4c62-8f5e-eea77a045ce8"/>
                  </identifier>
                  <status value="completed"/>
                  <code>
                     <coding>
                        <system value="http://snomed.info/sct"/>
                        <code value="274025005"/>
                        <display value="Colonic polypectomy"/>
                     </coding>
                  </code>
                  <subject>
                     <reference value="urn:uuid:90936bef-baac-4092-aa76-aa6127036639"/>
                  </subject>
                  <performedPeriod>
                     <start value="2020-11-15"/>
                     <end value="2020-11-15"/>
                  </performedPeriod>
                  <asserter>
                     <reference value="urn:uuid:98edf9c6-06b3-4298-a6fa-48cdb013b0a4"/>
                  </asserter>
                  <outcome>
                     <coding>
                        <system value="http://terminology.hl7.org/CodeSystem/v3-NullFlavor"/>
                        <code value="NA"/>
                        <display value="Not applicable"/>
                     </coding>
                  </outcome>
               </Procedure>
            </resource>
         </entry>
         <entry>
            <fullUrl value="urn:uuid:382c0fda-12de-4b94-9d81-a5e4bcc9964b"/>
            <resource>
               <Procedure><!--No profiles found for any of the following templates: urn:hl7ii:2.16.840.1.113883.10.20.22.4.14:2014-06-09urn:hl7ii:2.16.840.1.113883.10.20.15.2.3.44:2021-01-01-->
                  <identifier>
                     <system value="urn:ietf:rfc:3986"/>
                     <value value="urn:uuid:609a7b3b-3bd1-4e83-b621-c4afe4a90cd7"/>
                  </identifier>
                  <status value="completed"/>
                  <code>
                     <coding>
                        <system value="http://snomed.info/sct"/>
                        <code value="233573008"/>
                        <display value="Extracorporeal membrane oxygenation (procedure)"/>
                     </coding>
                  </code>
                  <subject>
                     <reference value="urn:uuid:90936bef-baac-4092-aa76-aa6127036639"/>
                  </subject>
                  <performedPeriod>
                     <start value="2020-11-15"/>
                     <end value="2020-11-15"/>
                  </performedPeriod>
                  <asserter>
                     <reference value="urn:uuid:98edf9c6-06b3-4298-a6fa-48cdb013b0a4"/>
                  </asserter>
               </Procedure>
            </resource>
         </entry>
         <entry>
            <fullUrl value="urn:uuid:0820aabb-e204-4388-9b61-9b6d8e97d7ae"/>
            <resource>
               <Procedure><!--No profiles found for any of the following templates: urn:hl7ii:2.16.840.1.113883.10.20.22.4.12:2014-06-09urn:hl7ii:2.16.840.1.113883.10.20.15.2.3.45:2021-01-01-->
                  <identifier>
                     <system value="urn:ietf:rfc:3986"/>
                     <value value="urn:uuid:941aee94-1f69-4fa8-91c8-7eee00915728"/>
                  </identifier>
                  <status value="completed"/>
                  <code>
                     <coding>
                        <system value="http://snomed.info/sct"/>
                        <code value="409524006"/>
                        <display value="Airborn precautions (procedure)"/>
                     </coding>
                  </code>
                  <subject>
                     <reference value="urn:uuid:90936bef-baac-4092-aa76-aa6127036639"/>
                  </subject>
                  <performedPeriod>
                     <start value="2020-11-15"/>
                     <end value="2020-11-15"/>
                  </performedPeriod>
                  <asserter>
                     <reference value="urn:uuid:98edf9c6-06b3-4298-a6fa-48cdb013b0a4"/>
                  </asserter>
               </Procedure>
            </resource>
         </entry>
         <entry>
            <fullUrl value="urn:uuid:67edbd4b-90af-4f47-a213-643513189a91"/>
            <resource>
               <Procedure>
                  <meta>
                     <profile value="http://hl7.org/fhir/us/core/StructureDefinition/us-core-procedure"/>
                     <!--CDA templateId: urn:hl7ii:2.16.840.1.113883.10.20.22.4.13:2014-06-09-->
                  </meta>
                  <identifier>
                     <system value="urn:ietf:rfc:3986"/>
                     <value value="urn:uuid:e535eb92-829f-45bb-8602-a49f59bb4e2c"/>
                  </identifier>
                  <status value="completed"/>
                  <code>
                     <coding>
                        <system value="http://snomed.info/sct"/>
                        <code value="385857005"/>
                        <display value="Ventilator care and adjustment (regime/therapy)"/>
                     </coding>
                  </code>
                  <subject>
                     <reference value="urn:uuid:90936bef-baac-4092-aa76-aa6127036639"/>
                  </subject>
                  <performedPeriod>
                     <start value="2020-11-15"/>
                     <end value="2020-11-15"/>
                  </performedPeriod>
                  <asserter>
                     <reference value="urn:uuid:98edf9c6-06b3-4298-a6fa-48cdb013b0a4"/>
                  </asserter>
                  <outcome>
                     <coding>
                        <system value="http://terminology.hl7.org/CodeSystem/v3-NullFlavor"/>
                        <code value="NA"/>
                        <display value="Not applicable"/>
                     </coding>
                  </outcome>
               </Procedure>
            </resource>
         </entry>
         <entry>
            <fullUrl value="urn:uuid:8fe05a1b-c0a7-49a1-8fc6-b5a19b2e63c0"/>
            <resource>
               <Immunization>
                  <meta>
                     <profile value="http://hl7.org/fhir/us/core/StructureDefinition/us-core-immunization"/>
                     <!--CDA templateId: urn:hl7ii:2.16.840.1.113883.10.20.22.4.52:2015-08-01-->
                  </meta>
                  <identifier>
                     <system value="urn:uuid:00000000-5CF3-EC63-0513-4A4838595787"/>
                     <value value="11369-6_3-1_1.3.6.1.4.1.22812.11.2016.163.1_14168"/>
                  </identifier>
                  <status value="completed"/>
                  <vaccineCode>
                     <coding>
                        <system value="http://hl7.org/fhir/sid/cvx"/>
                        <code value="106"/>
                        <display value="diphtheria, tetanus toxoids and acellular pertussis vaccine, 5 pertussis antigens"/>
                     </coding>
                  </vaccineCode>
                  <patient>
                     <reference value="urn:uuid:90936bef-baac-4092-aa76-aa6127036639"/>
                  </patient>
                  <occurrenceDateTime value="2020-11-07"/>
                  <!--Defaulting primarySource to false since this info is not in the C-CDA Immunization Activity template-->
                  <primarySource value="false"/>
                  <route>
                     <coding>
                        <system value="http://ncimeta.nci.nih.gov"/>
                        <code value="C38288"/>
                        <display value="ORAL"/>
                     </coding>
                  </route>
                  <doseQuantity>
                     <value value="1"/>
                     <unit value="g"/>
                  </doseQuantity>
               </Immunization>
            </resource>
         </entry>
         <entry>
            <fullUrl value="urn:uuid:a14bfe8a-d27d-4ec7-a81b-b2a37c2617ed"/>
            <resource>
               <Immunization>
                  <meta>
                     <profile value="http://hl7.org/fhir/us/core/StructureDefinition/us-core-immunization"/>
                     <!--CDA templateId: urn:hl7ii:2.16.840.1.113883.10.20.22.4.52:2015-08-01-->
                  </meta>
                  <identifier>
                     <system value="urn:uuid:00000000-5CF3-EC63-0513-4A4838595787"/>
                     <value value="11369-6_2-1_1.3.6.1.4.1.22812.11.2016.163.1_14168"/>
                  </identifier>
                  <status value="completed"/>
                  <vaccineCode>
                     <coding>
                        <system value="http://hl7.org/fhir/sid/cvx"/>
                        <code value="24"/>
                        <display value="anthrax vaccine"/>
                     </coding>
                  </vaccineCode>
                  <patient>
                     <reference value="urn:uuid:90936bef-baac-4092-aa76-aa6127036639"/>
                  </patient>
                  <occurrenceDateTime value="2020-11-07"/>
                  <!--Defaulting primarySource to false since this info is not in the C-CDA Immunization Activity template-->
                  <primarySource value="false"/>
                  <route>
                     <coding>
                        <system value="http://terminology.hl7.org/CodeSystem/v3-NullFlavor"/>
                        <code value="NI"/>
                        <display value="NoInformation"/>
                     </coding>
                  </route>
               </Immunization>
            </resource>
         </entry>
         <entry>
            <fullUrl value="urn:uuid:bc10caa6-d848-4d9f-9358-fad0bf379cbf"/>
            <resource>
               <Observation><!--Processing as generic observation: 2.16.840.1.113883.10.20.15.2.3.55:--><!--No profiles found for any of the following templates: urn:hl7ii:2.16.840.1.113883.10.20.15.2.3.55:2021-01-01-->
                  <identifier>
                     <system value="urn:ietf:rfc:3986"/>
                     <value value="urn:uuid:3adc7f4d-ff0a-4b38-9252-bd65edbe3dff"/>
                  </identifier>
                  <status value="final"/>
                  <code>
                     <coding>
                        <system value="http://loinc.org"/>
                        <code value="11370-4"/>
                        <display value="Immunization status - Reported"/>
                     </coding>
                  </code>
                  <subject>
                     <reference value="urn:uuid:90936bef-baac-4092-aa76-aa6127036639"/>
                  </subject>
                  <effectiveDateTime value="2020-11-07"/>
                  <!--Using document effective time as issued date-->
                  <issued value="2020-11-07T09:44:21.000-05:00"/>
                  <performer/>
                  <valueCodeableConcept>
                     <coding>
                        <system value="urn:oid:2.16.840.1.113883.12.136"/>
                        <code value="Y"/>
                        <display value="Yes"/>
                     </coding>
                  </valueCodeableConcept>
               </Observation>
            </resource>
         </entry>
         <entry>
            <fullUrl value="urn:uuid:4a9820ea-3995-4396-8a6f-f96cb15e58c3"/>
            <resource>
               <Observation><!--Characteristics of Home Environment-->
                  <meta>
                     <profile value="http://hl7.org/fhir/us/ecr/StructureDefinition/characteristics-of-home-environment"/>
                     <!--CDA templateId: urn:hl7ii:2.16.840.1.113883.10.20.22.4.109-->
                     <profile value="http://hl7.org/fhir/us/ecr/StructureDefinition/us-ph-characteristics-of-home-environment"/>
                     <!--CDA templateId: urn:hl7ii:2.16.840.1.113883.10.20.22.4.109-->
                  </meta>
                  <identifier>
                     <system value="urn:ietf:rfc:3986"/>
                     <value value="urn:uuid:37f76c51-6411-4e1d-8a37-957fd49d2ced"/>
                  </identifier>
                  <status value="final"/>
                  <code>
                     <coding>
                        <system value="http://loinc.org"/>
                        <code value="75274-1"/>
                        <display value="Characteristics of residence"/>
                     </coding>
                  </code>
                  <subject>
                     <reference value="urn:uuid:90936bef-baac-4092-aa76-aa6127036639"/>
                  </subject>
                  <effectiveDateTime value="2020-11-09"/>
                  <performer/>
                  <valueCodeableConcept>
                     <coding>
                        <system value="http://snomed.info/sct"/>
                        <code value="32911000"/>
                        <display value="Homeless (finding)"/>
                     </coding>
                  </valueCodeableConcept>
               </Observation>
            </resource>
         </entry>
         <entry>
            <fullUrl value="urn:uuid:4420f5f4-83d0-4d58-9e09-126bc85439eb"/>
            <resource>
               <Observation><!--Processing as generic observation: 2.16.840.1.113883.10.20.15.2.3.52:-->
                  <meta>
                     <profile value="http://hl7.org/fhir/us/ecr/StructureDefinition/us-ph-exposure-contact-information"/>
                     <!--CDA templateId: urn:hl7ii:2.16.840.1.113883.10.20.15.2.3.52:2021-01-01-->
                  </meta>
                  <identifier>
                     <system value="urn:ietf:rfc:3986"/>
                     <value value="urn:uuid:5f2e0ab0-b505-438a-9d50-f22d78ad1567"/>
                  </identifier>
                  <status value="final"/>
                  <category>
                     <coding>
                        <system value="http://terminology.hl7.org/CodeSystem/v3-ActClass"/>
                        <code value="EXPOS"/>
                        <display value="exposure"/>
                     </coding>
                     <text value="An interaction between entities that provides opportunity for transmission of a physical, chemical, or biological agent from an exposure source entity to an exposure target entity."/>
                  </category>
                  <code>
                     <coding>
                        <system value="http://loinc.org"/>
                        <code value="C3841750"/>
                        <display value="Mass gathering"/>
                     </coding>
                     <text value="Football game"/>
                  </code>
                  <subject>
                     <reference value="urn:uuid:90936bef-baac-4092-aa76-aa6127036639"/>
                  </subject>
                  <effectivePeriod>
                     <start value="2020-11-10T18:00:00+10:00"/>
                     <end value="2020-11-10T21:30:00+10:00"/>
                  </effectivePeriod>
                  <!--Using document effective time as issued date-->
                  <issued value="2020-11-07T09:44:21.000-05:00"/>
                  <performer/>
                  <valueCodeableConcept>
                     <coding>
                        <system value="http://snomed.info/sct"/>
                        <code value="264379009"/>
                        <display value="Sports stadium (environment)"/>
                     </coding>
                     <text value="City Football Stadium"/>
                  </valueCodeableConcept>
               </Observation>
            </resource>
         </entry>
         <entry>
            <fullUrl value="urn:uuid:e46790f8-ba9d-4d43-a4dc-cf293e3dc67c"/>
            <resource>
               <Observation><!--Processing as generic observation: 2.16.840.1.113883.10.20.15.2.3.52:-->
                  <meta>
                     <profile value="http://hl7.org/fhir/us/ecr/StructureDefinition/us-ph-exposure-contact-information"/>
                     <!--CDA templateId: urn:hl7ii:2.16.840.1.113883.10.20.15.2.3.52:2021-01-01-->
                  </meta>
                  <identifier>
                     <system value="urn:ietf:rfc:3986"/>
                     <value value="urn:uuid:a78adeed-d623-49cb-95df-42a0a2c33fca"/>
                  </identifier>
                  <status value="final"/>
                  <category>
                     <coding>
                        <system value="http://terminology.hl7.org/CodeSystem/v3-ActClass"/>
                        <code value="EXPOS"/>
                        <display value="exposure"/>
                     </coding>
                     <text value="An interaction between entities that provides opportunity for transmission of a physical, chemical, or biological agent from an exposure source entity to an exposure target entity."/>
                  </category>
                  <code>
                     <coding>
                        <system value="urn:oid:2.16.840.1.114222.4.5.274"/>
                        <code value="PHC2266"/>
                        <display value="Animal with confirmed or suspected case"/>
                     </coding>
                  </code>
                  <subject>
                     <reference value="urn:uuid:90936bef-baac-4092-aa76-aa6127036639"/>
                  </subject>
                  <effectivePeriod>
                     <start value="2020-11-09"/>
                     <end value="2020-11-13"/>
                  </effectivePeriod>
                  <!--Using document effective time as issued date-->
                  <issued value="2020-11-07T09:44:21.000-05:00"/>
                  <performer/>
               </Observation>
            </resource>
         </entry>
         <entry>
            <fullUrl value="urn:uuid:497ea2c3-3f1d-4303-85ae-5617763cdfd0"/>
            <resource>
               <Observation><!--Processing as generic observation: 2.16.840.1.113883.10.20.15.2.3.52:-->
                  <meta>
                     <profile value="http://hl7.org/fhir/us/ecr/StructureDefinition/us-ph-exposure-contact-information"/>
                     <!--CDA templateId: urn:hl7ii:2.16.840.1.113883.10.20.15.2.3.52:2021-01-01-->
                  </meta>
                  <identifier>
                     <system value="urn:ietf:rfc:3986"/>
                     <value value="urn:uuid:a78adeed-d623-49cb-95df-42a0a2c33fca"/>
                  </identifier>
                  <status value="final"/>
                  <category>
                     <coding>
                        <system value="http://terminology.hl7.org/CodeSystem/v3-ActClass"/>
                        <code value="EXPOS"/>
                        <display value="exposure"/>
                     </coding>
                     <text value="An interaction between entities that provides opportunity for transmission of a physical, chemical, or biological agent from an exposure source entity to an exposure target entity."/>
                  </category>
                  <code>
                     <coding>
                        <system value="urn:oid:2.16.840.1.114222.4.5.274"/>
                        <code value="PHC2267"/>
                        <display value="Contact with known case"/>
                     </coding>
                  </code>
                  <subject>
                     <reference value="urn:uuid:90936bef-baac-4092-aa76-aa6127036639"/>
                  </subject>
                  <effectivePeriod>
                     <start value="2020-11-09"/>
                     <end value="2020-11-13"/>
                  </effectivePeriod>
                  <!--Using document effective time as issued date-->
                  <issued value="2020-11-07T09:44:21.000-05:00"/>
                  <performer/>
               </Observation>
            </resource>
         </entry>
         <entry>
            <fullUrl value="urn:uuid:88a1b878-ae02-48a4-b384-825f3da51aa8"/>
            <resource>
               <Observation><!--Travel History-->
                  <meta>
                     <profile value="http://hl7.org/fhir/us/ecr/StructureDefinition/us-ph-travel-history"/>
                     <!--CDA templateId: urn:hl7ii:2.16.840.1.113883.10.20.15.2.3.1:2021-01-01-->
                  </meta>
                  <identifier>
                     <system value="urn:ietf:rfc:3986"/>
                     <value value="urn:uuid:79565142-eae0-4213-a3b3-b73cdf474682"/>
                  </identifier>
                  <status value="final"/>
                  <code>
                     <coding>
                        <system value="http://snomed.info/sct"/>
                        <code value="420008001"/>
                        <display value="Travel"/>
                     </coding>
                  </code>
                  <subject>
                     <reference value="urn:uuid:90936bef-baac-4092-aa76-aa6127036639"/>
                  </subject>
                  <effectivePeriod>
                     <start value="1999"/>
                     <end value="2007"/>
                  </effectivePeriod>
                  <performer>
                     <reference value="urn:uuid:98edf9c6-06b3-4298-a6fa-48cdb013b0a4"/>
                  </performer>
                  <component>
                     <code>
                        <coding>
                           <system value="http://terminology.hl7.org/CodeSystem/v3-ParticipationType"/>
                           <code value="LOC"/>
                           <display value="Location"/>
                        </coding>
                     </code>
                     <valueCodeableConcept>
                        <text value="Spent 8 years in the UK during the BSE outbreak"/>
                     </valueCodeableConcept>
                  </component>
               </Observation>
            </resource>
         </entry>
         <entry>
            <fullUrl value="urn:uuid:23e7a3d7-f8bd-48ae-977b-adede78a4290"/>
            <resource>
               <Observation><!--Travel History-->
                  <meta>
                     <profile value="http://hl7.org/fhir/us/ecr/StructureDefinition/us-ph-travel-history"/>
                     <!--CDA templateId: urn:hl7ii:2.16.840.1.113883.10.20.15.2.3.1:2021-01-01-->
                  </meta>
                  <identifier>
                     <system value="urn:ietf:rfc:3986"/>
                     <value value="urn:uuid:030df1dc-1d31-4e5d-abdd-5edd0b74c5c3"/>
                  </identifier>
                  <status value="final"/>
                  <code>
                     <coding>
                        <system value="http://snomed.info/sct"/>
                        <code value="420008001"/>
                        <display value="Travel"/>
                     </coding>
                  </code>
                  <subject>
                     <reference value="urn:uuid:90936bef-baac-4092-aa76-aa6127036639"/>
                  </subject>
                  <effectivePeriod>
                     <start value="2020-10-19"/>
                     <end value="2020-11-09"/>
                  </effectivePeriod>
                  <performer>
                     <reference value="urn:uuid:98edf9c6-06b3-4298-a6fa-48cdb013b0a4"/>
                  </performer>
                  <component>
                     <code>
                        <coding>
                           <system value="http://terminology.hl7.org/CodeSystem/v3-ParticipationType"/>
                           <code value="LOC"/>
                           <display value="Location"/>
                        </coding>
                     </code>
                     <valueCodeableConcept>
                        <coding>
                           <system value="urn:iso:std:iso:3166"/>
                           <code value="BRA"/>
                           <display value="Brazil"/>
                        </coding>
                     </valueCodeableConcept>
                  </component>
               </Observation>
            </resource>
         </entry>
         <entry>
            <fullUrl value="urn:uuid:ae4afdff-b825-41b6-b27a-8b048fe26c6e"/>
            <resource>
               <Observation><!--Travel History-->
                  <meta>
                     <profile value="http://hl7.org/fhir/us/ecr/StructureDefinition/us-ph-travel-history"/>
                     <!--CDA templateId: urn:hl7ii:2.16.840.1.113883.10.20.15.2.3.1:2021-01-01-->
                  </meta>
                  <identifier>
                     <system value="urn:ietf:rfc:3986"/>
                     <value value="urn:uuid:b98e410c-d29a-46d8-8fc8-f55a9d3022b9"/>
                  </identifier>
                  <status value="final"/>
                  <code>
                     <coding>
                        <system value="http://snomed.info/sct"/>
                        <code value="420008001"/>
                        <display value="Travel"/>
                     </coding>
                  </code>
                  <subject>
                     <reference value="urn:uuid:90936bef-baac-4092-aa76-aa6127036639"/>
                  </subject>
                  <effectivePeriod>
                     <start value="2020-04-25"/>
                     <end value="2020-04-30"/>
                  </effectivePeriod>
                  <performer>
                     <reference value="urn:uuid:98edf9c6-06b3-4298-a6fa-48cdb013b0a4"/>
                  </performer>
                  <component>
                     <extension url="http://hl7.org/fhir/us/ecr/StructureDefinition/travel-history-address-extension">
                        <valueAddress>
                           <city value="Nadi"/>
                           <country value="FJ"/>
                        </valueAddress>
                     </extension>
                     <code>
                        <coding>
                           <system value="http://terminology.hl7.org/CodeSystem/v3-ParticipationType"/>
                           <code value="LOC"/>
                           <display value="Location"/>
                        </coding>
                     </code>
                  </component>
               </Observation>
            </resource>
         </entry>
         <entry>
            <fullUrl value="urn:uuid:35377662-1db7-492b-8c99-2f5cb045d4e2"/>
            <resource>
               <Observation><!--Travel History-->
                  <meta>
                     <profile value="http://hl7.org/fhir/us/ecr/StructureDefinition/us-ph-travel-history"/>
                     <!--CDA templateId: urn:hl7ii:2.16.840.1.113883.10.20.15.2.3.1:2021-01-01-->
                  </meta>
                  <identifier>
                     <system value="urn:ietf:rfc:3986"/>
                     <value value="urn:uuid:b97346f7-8f9e-4c5b-97bb-df4f6e057fd4"/>
                  </identifier>
                  <status value="final"/>
                  <code>
                     <coding>
                        <system value="http://snomed.info/sct"/>
                        <code value="420008001"/>
                        <display value="Travel"/>
                     </coding>
                  </code>
                  <subject>
                     <reference value="urn:uuid:90936bef-baac-4092-aa76-aa6127036639"/>
                  </subject>
                  <effectivePeriod>
                     <start value="2020-05-06"/>
                     <end value="2020-05-15"/>
                  </effectivePeriod>
                  <performer>
                     <reference value="urn:uuid:98edf9c6-06b3-4298-a6fa-48cdb013b0a4"/>
                  </performer>
                  <component>
                     <extension url="http://hl7.org/fhir/us/ecr/StructureDefinition/travel-history-address-extension">
                        <valueAddress>
                           <city value="Montreal"/>
                           <state value="QC"/>
                           <country value="CA"/>
                        </valueAddress>
                     </extension>
                     <code>
                        <coding>
                           <system value="http://terminology.hl7.org/CodeSystem/v3-ParticipationType"/>
                           <code value="LOC"/>
                           <display value="Location"/>
                        </coding>
                     </code>
                  </component>
               </Observation>
            </resource>
         </entry>
         <entry>
            <fullUrl value="urn:uuid:743e7d2c-4826-4bfe-bec2-940518c48f05"/>
            <resource>
               <Observation><!--Travel History-->
                  <meta>
                     <profile value="http://hl7.org/fhir/us/ecr/StructureDefinition/us-ph-travel-history"/>
                     <!--CDA templateId: urn:hl7ii:2.16.840.1.113883.10.20.15.2.3.1:2021-01-01-->
                  </meta>
                  <identifier>
                     <system value="urn:ietf:rfc:3986"/>
                     <value value="urn:uuid:1d957c2a-6133-427d-a6cc-26f132773b86"/>
                  </identifier>
                  <status value="final"/>
                  <code>
                     <coding>
                        <system value="http://snomed.info/sct"/>
                        <code value="420008001"/>
                        <display value="Travel"/>
                     </coding>
                  </code>
                  <subject>
                     <reference value="urn:uuid:90936bef-baac-4092-aa76-aa6127036639"/>
                  </subject>
                  <effectivePeriod>
                     <start value="2020-07-13"/>
                     <end value="2020-07-15"/>
                  </effectivePeriod>
                  <performer>
                     <reference value="urn:uuid:98edf9c6-06b3-4298-a6fa-48cdb013b0a4"/>
                  </performer>
                  <component>
                     <extension url="http://hl7.org/fhir/us/ecr/StructureDefinition/travel-history-address-extension">
                        <valueAddress>
                           <city value="Sydney"/>
                           <state value="NSW"/>
                           <country value="AU"/>
                        </valueAddress>
                     </extension>
                     <code>
                        <coding>
                           <system value="http://terminology.hl7.org/CodeSystem/v3-ParticipationType"/>
                           <code value="LOC"/>
                           <display value="Location"/>
                        </coding>
                     </code>
                  </component>
               </Observation>
            </resource>
         </entry>
         <entry>
            <fullUrl value="urn:uuid:8fe8903f-ee18-4c5f-ba62-628bdcab1f3a"/>
            <resource>
               <Observation><!--Travel History-->
                  <meta>
                     <profile value="http://hl7.org/fhir/us/ecr/StructureDefinition/us-ph-travel-history"/>
                     <!--CDA templateId: urn:hl7ii:2.16.840.1.113883.10.20.15.2.3.1:2021-01-01-->
                  </meta>
                  <identifier>
                     <system value="urn:ietf:rfc:3986"/>
                     <value value="urn:uuid:45397b5c-e974-4cf1-8b19-e1555bd55701"/>
                  </identifier>
                  <status value="final"/>
                  <code>
                     <coding>
                        <system value="http://snomed.info/sct"/>
                        <code value="420008001"/>
                        <display value="Travel"/>
                     </coding>
                  </code>
                  <subject>
                     <reference value="urn:uuid:90936bef-baac-4092-aa76-aa6127036639"/>
                  </subject>
                  <effectivePeriod>
                     <start value="2020-10-22"/>
                     <end value="2020-10-30"/>
                  </effectivePeriod>
                  <performer>
                     <reference value="urn:uuid:98edf9c6-06b3-4298-a6fa-48cdb013b0a4"/>
                  </performer>
                  <component>
                     <extension url="http://hl7.org/fhir/us/ecr/StructureDefinition/travel-history-address-extension">
                        <valueAddress>
                           <line value="1170 N Rancho Robles Rd"/>
                           <city value="Oracle"/>
                           <state value="AZ"/>
                           <postalCode value="8562"/>
                           <country value="US"/>
                        </valueAddress>
                     </extension>
                     <code>
                        <coding>
                           <system value="http://terminology.hl7.org/CodeSystem/v3-ParticipationType"/>
                           <code value="LOC"/>
                           <display value="Location"/>
                        </coding>
                     </code>
                  </component>
               </Observation>
            </resource>
         </entry>
         <entry>
            <fullUrl value="urn:uuid:0ebcc0fb-b95f-410a-a2a7-8421185f7c46"/>
            <resource>
               <Observation><!--Processing as generic observation: 2.16.840.1.113883.10.20.15.2.3.53:-->
                  <meta>
                     <profile value="http://hl7.org/fhir/us/ecr/StructureDefinition/eicr-country-of-residence"/>
                     <!--CDA templateId: urn:hl7ii:2.16.840.1.113883.10.20.15.2.3.53:2021-01-01-->
                  </meta>
                  <identifier>
                     <system value="urn:ietf:rfc:3986"/>
                     <value value="urn:uuid:3adc7f4d-ff0a-4b38-9252-bd65edbe3dfg"/>
                  </identifier>
                  <status value="final"/>
                  <code>
                     <coding>
                        <system value="http://loinc.org"/>
                        <code value="77983-5"/>
                        <display value="Country of usual residence"/>
                     </coding>
                  </code>
                  <subject>
                     <reference value="urn:uuid:90936bef-baac-4092-aa76-aa6127036639"/>
                  </subject>
                  <!--Using document effective time as issued date-->
                  <issued value="2020-11-07T09:44:21.000-05:00"/>
                  <performer/>
                  <valueCodeableConcept>
                     <coding>
                        <system value="urn:oid:1.0.3166.1.2.2"/>
                        <code value="GB"/>
                        <display value="United Kingdom of Great Britain and Northern Ireland"/>
                     </coding>
                  </valueCodeableConcept>
               </Observation>
            </resource>
         </entry>
         <entry>
            <fullUrl value="urn:uuid:aa7526e4-7c34-4693-a739-53e18167d07c"/>
            <resource>
               <Observation><!--Processing as generic observation: 2.16.840.1.113883.10.20.15.2.3.54:-->
                  <meta>
                     <profile value="http://hl7.org/fhir/us/ecr/StructureDefinition/eicr-country-of-nationality"/>
                     <!--CDA templateId: urn:hl7ii:2.16.840.1.113883.10.20.15.2.3.54:2021-01-01-->
                  </meta>
                  <identifier>
                     <system value="urn:ietf:rfc:3986"/>
                     <value value="urn:uuid:3adc7f4d-ff0a-4b38-9252-bd65edbe3dfa"/>
                  </identifier>
                  <status value="final"/>
                  <code>
                     <coding>
                        <system value="http://snomed.info/sct"/>
                        <code value="186034007"/>
                        <display value="Ethnicity / related nationality data (observable entity)"/>
                     </coding>
                  </code>
                  <subject>
                     <reference value="urn:uuid:90936bef-baac-4092-aa76-aa6127036639"/>
                  </subject>
                  <!--Using document effective time as issued date-->
                  <issued value="2020-11-07T09:44:21.000-05:00"/>
                  <performer/>
                  <valueCodeableConcept>
                     <coding>
                        <system value="urn:oid:1.0.3166.1.2.2"/>
                        <code value="AU"/>
                        <display value="Australia"/>
                     </coding>
                  </valueCodeableConcept>
               </Observation>
            </resource>
         </entry>
         <entry>
            <fullUrl value="urn:uuid:179d598b-6cda-472f-ac51-c8237d477540"/>
            <resource>
               <Observation><!--Processing as generic observation: 2.16.840.1.113883.10.20.15.2.3.47:-->
                  <meta>
                     <profile value="http://hl7.org/fhir/us/ecr/StructureDefinition/us-ph-disability-status"/>
                     <!--CDA templateId: urn:hl7ii:2.16.840.1.113883.10.20.15.2.3.47:2021-01-01-->
                  </meta>
                  <identifier>
                     <system value="urn:ietf:rfc:3986"/>
                     <value value="urn:uuid:c09ac074-605e-47bd-8b1c-735e7321fbc2"/>
                  </identifier>
                  <status value="final"/>
                  <code>
                     <coding>
                        <system value="http://loinc.org"/>
                        <code value="69856-3"/>
                        <display value="Are you deaf, or do you have serious difficulty hearing [HHS.ACA Section 4302]"/>
                     </coding>
                  </code>
                  <subject>
                     <reference value="urn:uuid:90936bef-baac-4092-aa76-aa6127036639"/>
                  </subject>
                  <effectiveDateTime value="2020-11-09"/>
                  <!--Using document effective time as issued date-->
                  <issued value="2020-11-07T09:44:21.000-05:00"/>
                  <performer/>
                  <valueBoolean value="true"/>
               </Observation>
            </resource>
         </entry>
         <entry>
            <fullUrl value="urn:uuid:09929d2e-a658-474a-b036-cdd92607d1e8"/>
            <resource>
               <Observation><!--Processing as generic observation: 2.16.840.1.113883.10.20.15.2.3.48:--><!--No profiles found for any of the following templates: urn:hl7ii:2.16.840.1.113883.10.20.15.2.3.48:2021-01-01-->
                  <identifier>
                     <system value="urn:ietf:rfc:3986"/>
                     <value value="urn:uuid:cecfb1ba-1e13-47bd-b6ea-5a40f22798a9"/>
                  </identifier>
                  <status value="final"/>
                  <code>
                     <coding>
                        <system value="http://terminology.hl7.org/CodeSystem/v3-TribalEntityUS"/>
                        <code value="91"/>
                        <display value="Fort Mojave Indian Tribe of Arizona, California"/>
                     </coding>
                  </code>
                  <subject>
                     <reference value="urn:uuid:90936bef-baac-4092-aa76-aa6127036639"/>
                  </subject>
                  <effectiveDateTime value="2020-11-09"/>
                  <!--Using document effective time as issued date-->
                  <issued value="2020-11-07T09:44:21.000-05:00"/>
                  <performer/>
                  <valueBoolean value="true"/>
               </Observation>
            </resource>
         </entry>
         <entry>
            <fullUrl value="urn:uuid:6575ef82-8753-4008-a93b-aba99dcbca48"/>
            <resource>
               <Observation><!--ODH Usual Work--><!--No profiles found for any of the following templates: urn:hl7ii:2.16.840.1.113883.10.20.22.4.221:2020-09-01-->
                  <identifier>
                     <system value="urn:ietf:rfc:3986"/>
                     <value value="urn:uuid:4f4b3876-8570-41a0-b995-cf34f37c5cbf"/>
                  </identifier>
                  <status value="final"/>
                  <code>
                     <coding>
                        <system value="http://loinc.org"/>
                        <code value="21843-8"/>
                        <display value="Usual Occupation"/>
                     </coding>
                  </code>
                  <subject>
                     <reference value="urn:uuid:90936bef-baac-4092-aa76-aa6127036639"/>
                  </subject>
                  <effectivePeriod>
                     <start value="1996-11-24"/>
                  </effectivePeriod>
                  <performer/>
                  <valueCodeableConcept>
                     <coding>
                        <system value="urn:oid:2.16.840.1.113883.6.240"/>
                        <code value="3600"/>
                        <display value="Nursing, psychiatric, and home health aides"/>
                     </coding>
                     <coding>
                        <system value="urn:oid:2.16.840.1.114222.4.5.327"/>
                        <code value="31-1014.00.007136"/>
                        <display value="Certified Nursing Assistant (CNA) [Nursing Assistants]"/>
                     </coding>
                  </valueCodeableConcept>
                  <component><!---->
                     <code>
                        <coding>
                           <system value="http://loinc.org"/>
                           <code value="21844-6"/>
                           <display value="Usual Industry"/>
                        </coding>
                     </code>
                     <valueCodeableConcept>
                        <coding>
                           <system value="https://phinvads.cdc.gov/vads/ViewCodeSystem.action?id=2.16.840.1.114222.4.5.315"/>
                           <code value="8270"/>
                           <display value="Nursing care facilities"/>
                        </coding>
                        <coding>
                           <system value="urn:oid:2.16.840.1.114222.4.5.327"/>
                           <code value="621610.008495"/>
                           <display value="Home nursing services"/>
                        </coding>
                     </valueCodeableConcept>
                  </component>
               </Observation>
            </resource>
         </entry>
         <entry>
            <fullUrl value="urn:uuid:f4592c9b-2c63-4fea-ab3b-f51462c5ba04"/>
            <resource>
               <Organization>
                  <identifier>
                     <system value="urn:uuid:58822180-ab0d-42e4-90c6-35336bf55654"/>
                     <value value="12345"/>
                  </identifier>
                  <active value="true"/>
                  <name value="University Hospital"/>
                  <telecom>
                     <system value="phone"/>
                     <value value="555-1212"/>
                     <use value="work"/>
                  </telecom>
                  <address>
                     <line value="Peachtree St"/>
                     <city value="Atlanta"/>
                     <state value="Georgia"/>
                  </address>
               </Organization>
            </resource>
         </entry>
         <entry>
            <fullUrl value="urn:uuid:f462a0ec-133c-4ccb-83ed-a18d5e6d7db7"/>
            <resource>
               <Observation><!--ODH Past or Present Job--><!--No profiles found for any of the following templates: urn:hl7ii:2.16.840.1.113883.10.20.22.4.217:2020-09-01--><!--ohh-Employer-extension-->
                  <extension url="http://hl7.org/fhir/us/odh/StructureDefinition/odh-Employer-extension">
                     <valueReference>
                        <reference value="urn:uuid:f4592c9b-2c63-4fea-ab3b-f51462c5ba04"/>
                     </valueReference>
                  </extension>
                  <identifier>
                     <system value="urn:ietf:rfc:3986"/>
                     <value value="urn:uuid:1728123a-7b6c-418c-adc2-f78417caf62c"/>
                  </identifier>
                  <status value="final"/>
                  <code>
                     <coding>
                        <system value="http://loinc.org"/>
                        <code value="11341-5"/>
                        <display value="History of Occupation"/>
                     </coding>
                  </code>
                  <subject>
                     <reference value="urn:uuid:90936bef-baac-4092-aa76-aa6127036639"/>
                  </subject>
                  <effectivePeriod>
                     <start value="2015-04-24"/>
                  </effectivePeriod>
                  <performer/>
                  <valueCodeableConcept>
                     <coding>
                        <system value="urn:oid:2.16.840.1.113883.6.240"/>
                        <code value="3600"/>
                        <display value="Nursing, psychiatric, and home health aides"/>
                     </coding>
                     <coding>
                        <system value="urn:oid:2.16.840.1.114222.4.5.327"/>
                        <code value="31-1014.00.007136"/>
                        <display value="Certified Nursing Assistant (CNA) [Nursing Assistants]"/>
                     </coding>
                  </valueCodeableConcept>
                  <component><!--Observation.component: odh-OccupationalHazard-->
                     <code>
                        <coding>
                           <system value="http://loinc.org"/>
                           <code value="87729-0"/>
                           <display value="History of Occupational hazard"/>
                        </coding>
                     </code>
                     <valueString value="Asbestos"/>
                  </component>
                  <component><!---->
                     <code>
                        <coding>
                           <system value="http://loinc.org"/>
                           <code value="86188-0"/>
                           <display value="Occupation Industry"/>
                        </coding>
                     </code>
                     <valueCodeableConcept>
                        <coding>
                           <system value="https://phinvads.cdc.gov/vads/ViewCodeSystem.action?id=2.16.840.1.114222.4.5.315"/>
                           <code value="8270"/>
                           <display value="Nursing care facilities"/>
                        </coding>
                        <coding>
                           <system value="urn:oid:2.16.840.1.114222.4.5.327"/>
                           <code value="621610.008495"/>
                           <display value="Home nursing services"/>
                        </coding>
                     </valueCodeableConcept>
                  </component>
               </Observation>
            </resource>
         </entry>
         <entry>
            <fullUrl value="urn:uuid:b262a1f7-361f-48f5-a3df-73dd9ab16037"/>
            <resource>
               <Observation><!--Pregnancy Status Observation-->
                  <meta>
                     <profile value="http://hl7.org/fhir/us/ecr/StructureDefinition/us-ph-pregnancy-status-observation"/>
                     <!--CDA templateId: urn:hl7ii:2.16.840.1.113883.10.20.22.4.293:2020-04-01-->
                  </meta>
                  <!--Pregnancy Status Recorded Date-->
                  <extension url="http://hl7.org/fhir/us/ecr/StructureDefinition/us-ph-date-recorded-extension">
                     <valueDateTime value="2017-10-01T10:35:00+10:00"/>
                  </extension>
                  <!--Pregnancy Status Determination Date-->
                  <extension url="http://hl7.org/fhir/us/ecr/StructureDefinition/us-ph-date-determined-extension">
                     <valueDateTime value="2017-10-01"/>
                  </extension>
                  <identifier>
                     <system value="urn:ietf:rfc:3986"/>
                     <value value="urn:uuid:bab77407-f76d-4a51-a2ed-980c8a59fe28"/>
                  </identifier>
                  <status value="final"/>
                  <code>
                     <coding>
                        <system value="http://loinc.org"/>
                        <code value="82810-3"/>
                        <display value="Pregnancy Status"/>
                     </coding>
                  </code>
                  <subject>
                     <reference value="urn:uuid:90936bef-baac-4092-aa76-aa6127036639"/>
                  </subject>
                  <effectivePeriod>
                     <start value="2017-08-26"/>
                  </effectivePeriod>
                  <performer>
                     <reference value="urn:uuid:98edf9c6-06b3-4298-a6fa-48cdb013b0a4"/>
                  </performer>
                  <valueCodeableConcept>
                     <coding>
                        <system value="http://snomed.info/sct"/>
                        <code value="77386006"/>
                        <display value="Pregnant"/>
                     </coding>
                  </valueCodeableConcept>
                  <method>
                     <coding>
                        <system value="http://snomed.info/sct"/>
                        <code value="16310003"/>
                        <display value="Diagnostic ultrasonography (procedure)"/>
                     </coding>
                  </method>
                  <component><!---->
                     <extension url="http://hl7.org/fhir/us/ecr/StructureDefinition/us-ph-date-determined-extension">
                        <valueDateTime value="2017-10-01T10:15:00+10:00"/>
                     </extension>
                     <code>
                        <coding>
                           <system value="http://loinc.org"/>
                           <code value="11780-4"/>
                           <display value="Delivery date estimated from ovulation date"/>
                        </coding>
                     </code>
                     <valueDateTime value="2017-10-01T10:15:00+10:00"/>
                  </component>
                  <component><!---->
                     <extension url="http://hl7.org/fhir/us/ecr/StructureDefinition/us-ph-date-determined-extension">
                        <valueDateTime value="2017-10-01T10:15:00+10:00"/>
                     </extension>
                     <code>
                        <coding>
                           <system value="http://loinc.org"/>
                           <code value="11887-7"/>
                           <display value="Gestational age Estimated from selected delivery date"/>
                        </coding>
                     </code>
                     <valueQuantity>
                        <value value="143"/>
                        <unit value="d"/>
                     </valueQuantity>
                  </component>
               </Observation>
            </resource>
         </entry>
         <entry>
            <fullUrl value="urn:uuid:94b56b09-330e-4efb-a487-7161d82067d3"/>
            <resource>
               <Observation><!--Pregnancy Outcome Observation--><!--No profiles found for any of the following templates: urn:hl7ii:2.16.840.1.113883.10.20.22.4.284:2020-04-01-->
                  <identifier>
                     <system value="urn:ietf:rfc:3986"/>
                     <value value="urn:uuid:6df3e951-e6f8-441d-a298-d9d6d3f405db"/>
                  </identifier>
                  <status value="final"/>
                  <code>
                     <coding>
                        <system value="http://loinc.org"/>
                        <code value="63893-2"/>
                        <display value="Outcome of Pregnancy"/>
                     </coding>
                  </code>
                  <subject>
                     <reference value="urn:uuid:90936bef-baac-4092-aa76-aa6127036639"/>
                  </subject>
                  <!--Reference to related Pregnancy Observation-->
                  <focus>
                     <reference value="urn:uuid:b262a1f7-361f-48f5-a3df-73dd9ab16037"/>
                  </focus>
                  <effectiveDateTime value="2020-01-05T08:50:00+10:00"/>
                  <performer>
                     <reference value="urn:uuid:98edf9c6-06b3-4298-a6fa-48cdb013b0a4"/>
                  </performer>
                  <valueCodeableConcept>
                     <coding>
                        <system value="http://snomed.info/sct"/>
                        <code value="237364002"/>
                        <display value="Stillbirth (finding)"/>
                     </coding>
                  </valueCodeableConcept>
                  <!--Birth Order component-->
                  <component>
                     <code>
                        <coding>
                           <system value="http://loinc.org"/>
                           <code value="73771-8"/>
                           <display value="Birth order"/>
                        </coding>
                     </code>
                     <valueInteger value="1"/>
                  </component>
               </Observation>
            </resource>
         </entry>
         <entry>
            <fullUrl value="urn:uuid:c7cfbc79-0c39-48a6-9dc9-d85d311911f6"/>
            <resource>
               <Observation><!--Last Menstrual Period-->
                  <meta>
                     <profile value="http://hl7.org/fhir/us/vr-common-library/StructureDefinition/Observation-last-menstrual-period"/>
                     <!--CDA templateId: urn:hl7ii:2.16.840.1.113883.10.20.30.3.34:2014-06-09-->
                  </meta>
                  <identifier>
                     <system value="urn:ietf:rfc:3986"/>
                     <value value="urn:uuid:5ffea0ae-9ae5-4313-956a-30219b4a6afa"/>
                  </identifier>
                  <status value="final"/>
                  <code>
                     <coding>
                        <system value="http://loinc.org"/>
                        <code value="8665-2"/>
                        <display value="Last menstrual period start date"/>
                     </coding>
                  </code>
                  <subject>
                     <reference value="urn:uuid:90936bef-baac-4092-aa76-aa6127036639"/>
                  </subject>
                  <effectiveDateTime value="2020-01-05T10:15:00+10:00"/>
                  <performer>
                     <reference value="urn:uuid:98edf9c6-06b3-4298-a6fa-48cdb013b0a4"/>
                  </performer>
                  <!--Start of last menstrual period-->
                  <valueDateTime value="2017-08-01"/>
               </Observation>
            </resource>
         </entry>
         <entry>
            <fullUrl value="urn:uuid:128a0df3-5012-4771-b815-879bfb2d98d8"/>
            <resource>
               <Observation><!--Postpartum Status--><!--No profiles found for any of the following templates: urn:hl7ii:2.16.840.1.113883.10.20.22.4.285:2020-04-01-->
                  <identifier>
                     <system value="urn:ietf:rfc:3986"/>
                     <value value="urn:uuid:9701b264-0f70-47f9-bfbf-aa4f9686cd3a"/>
                  </identifier>
                  <status value="final"/>
                  <code>
                     <coding>
                        <system value="http://snomed.info/sct"/>
                        <code value="249197004"/>
                        <display value="Maternal condition during puerperium (observable entity)"/>
                     </coding>
                  </code>
                  <subject>
                     <reference value="urn:uuid:90936bef-baac-4092-aa76-aa6127036639"/>
                  </subject>
                  <effectiveDateTime value="2020-01-05T10:15:00+10:00"/>
                  <performer>
                     <reference value="urn:uuid:98edf9c6-06b3-4298-a6fa-48cdb013b0a4"/>
                  </performer>
                  <!--Postpartum status-->
                  <valueCodeableConcept>
                     <coding>
                        <system value="http://snomed.info/sct"/>
                        <code value="42814007"/>
                        <display value="Mid postpartum state (finding)"/>
                     </coding>
                  </valueCodeableConcept>
               </Observation>
            </resource>
         </entry>
         <entry>
            <fullUrl value="urn:uuid:c0ea3855-1133-48b6-ade8-37ee97ffb771"/>
            <resource>
               <Observation><!--No profiles found for any of the following templates: urn:hl7ii:2.16.840.1.113883.10.20.22.4.26urn:hl7ii:2.16.840.1.113883.10.20.22.4.26:2015-08-01-->
                  <identifier>
                     <system value="urn:ietf:rfc:3986"/>
                     <value value="urn:uuid:e421f5c8-29c2-4798-9cb5-7988c236e49d"/>
                  </identifier>
                  <status value="final"/>
                  <category>
                     <coding>
                        <system value="http://terminology.hl7.org/CodeSystem/observation-category"/>
                        <code value="vital-signs"/>
                     </coding>
                  </category>
                  <code>
                     <coding>
                        <system value="http://snomed.info/sct"/>
                        <code value="46680005"/>
                        <display value="Vital Signs"/>
                     </coding>
                     <coding>
                        <system value="http://loinc.org"/>
                        <code value="74728-7"/>
                        <display value="Vital signs, weight, height, head circumference, oximetry, BMI, and BSA panel"/>
                     </coding>
                  </code>
                  <subject>
                     <reference value="urn:uuid:90936bef-baac-4092-aa76-aa6127036639"/>
                  </subject>
                  <effectiveDateTime value="2014-05-20T19:36:05.000-05:00"/>
                  <performer>
                     <reference value="urn:uuid:98edf9c6-06b3-4298-a6fa-48cdb013b0a4"/>
                  </performer>
                  <hasMember><!--2.16.840.1.113883.10.20.22.4.27--><!--2.16.840.1.113883.10.20.22.4.27:2014-06-09-->
                     <reference value="urn:uuid:3561466b-75ed-44f0-8521-ef9144cca47c"/>
                  </hasMember>
                  <hasMember><!--2.16.840.1.113883.10.20.22.4.27--><!--2.16.840.1.113883.10.20.22.4.27:2014-06-09-->
                     <reference value="urn:uuid:7d3e6653-9088-48e5-929f-5d83e867ad00"/>
                  </hasMember>
                  <hasMember><!--2.16.840.1.113883.10.20.22.4.27--><!--2.16.840.1.113883.10.20.22.4.27:2014-06-09-->
                     <reference value="urn:uuid:7e2ca92d-f93e-48ff-974e-26b83987bbc6"/>
                  </hasMember>
                  <hasMember><!--2.16.840.1.113883.10.20.22.4.27--><!--2.16.840.1.113883.10.20.22.4.27:2014-06-09-->
                     <reference value="urn:uuid:add56b62-06e9-415e-8f25-99e2ded92d33"/>
                  </hasMember>
                  <hasMember><!--2.16.840.1.113883.10.20.22.4.27--><!--2.16.840.1.113883.10.20.22.4.27:2014-06-09-->
                     <reference value="urn:uuid:2f1374ce-5952-487a-97c1-64a2616e8262"/>
                  </hasMember>
                  <hasMember><!--2.16.840.1.113883.10.20.22.4.27--><!--2.16.840.1.113883.10.20.22.4.27:2014-06-09-->
                     <reference value="urn:uuid:0e087f3b-f45d-4547-98b3-6f518e96b1a1"/>
                  </hasMember>
                  <hasMember><!--2.16.840.1.113883.10.20.22.4.27--><!--2.16.840.1.113883.10.20.22.4.27:2014-06-09-->
                     <reference value="urn:uuid:1d2f8600-decb-44c8-b7ce-0aff5fe98a1d"/>
                  </hasMember>
                  <hasMember><!--2.16.840.1.113883.10.20.22.4.27--><!--2.16.840.1.113883.10.20.22.4.27:2014-06-09-->
                     <reference value="urn:uuid:28970f10-574c-4c3e-bb6d-897e6cc787bc"/>
                  </hasMember>
               </Observation>
            </resource>
         </entry>
         <entry>
            <fullUrl value="urn:uuid:3561466b-75ed-44f0-8521-ef9144cca47c"/>
            <resource>
               <Observation>
                  <meta>
                     <profile value="http://hl7.org/fhir/StructureDefinition/vitalsigns"/>
                     <!--CDA templateId: urn:hl7ii:2.16.840.1.113883.10.20.22.4.27:2014-06-09-->
                  </meta>
                  <identifier>
                     <system value="urn:ietf:rfc:3986"/>
                     <value value="urn:uuid:2721acc5-0d05-4402-9e62-79943ea3901c"/>
                  </identifier>
                  <status value="final"/>
                  <category>
                     <coding>
                        <system value="http://terminology.hl7.org/CodeSystem/observation-category"/>
                        <code value="vital-signs"/>
                     </coding>
                  </category>
                  <code>
                     <coding>
                        <system value="http://loinc.org"/>
                        <code value="85354-9"/>
                        <display value="Blood pressure panel with all children optional"/>
                     </coding>
                     <text value="Blood pressure systolic &amp; diastolic"/>
                  </code>
                  <subject>
                     <reference value="urn:uuid:90936bef-baac-4092-aa76-aa6127036639"/>
                  </subject>
                  <effectiveDateTime value="2014-05-20T19:36:05.000-05:00"/>
                  <component>
                     <code>
                        <coding>
                           <system value="http://loinc.org"/>
                           <code value="8480-6"/>
                           <display value="SYSTOLIC BLOOD PRESSURE"/>
                        </coding>
                     </code>
                     <valueQuantity>
                        <value value="120"/>
                        <unit value="mm[Hg]"/>
                     </valueQuantity>
                  </component>
                  <component>
                     <code>
                        <coding>
                           <system value="http://loinc.org"/>
                           <code value="8462-4"/>
                           <display value="DIASTOLIC BLOOD PRESSURE"/>
                        </coding>
                     </code>
                     <valueQuantity>
                        <value value="80"/>
                        <unit value="mm[Hg]"/>
                     </valueQuantity>
                  </component>
               </Observation>
            </resource>
         </entry>
         <entry>
            <fullUrl value="urn:uuid:7d3e6653-9088-48e5-929f-5d83e867ad00"/>
            <resource>
               <Observation>
                  <meta>
                     <profile value="http://hl7.org/fhir/StructureDefinition/vitalsigns"/>
                     <!--CDA templateId: urn:hl7ii:2.16.840.1.113883.10.20.22.4.27:2014-06-09-->
                  </meta>
                  <identifier>
                     <system value="urn:ietf:rfc:3986"/>
                     <value value="urn:uuid:83bbffe1-54e5-4984-a32d-ad8f8d6896d8"/>
                  </identifier>
                  <status value="final"/>
                  <category>
                     <coding>
                        <system value="http://terminology.hl7.org/CodeSystem/observation-category"/>
                        <code value="vital-signs"/>
                     </coding>
                  </category>
                  <code>
                     <coding>
                        <system value="http://loinc.org"/>
                        <code value="8867-4"/>
                        <display value="HEART RATE"/>
                     </coding>
                  </code>
                  <subject>
                     <reference value="urn:uuid:90936bef-baac-4092-aa76-aa6127036639"/>
                  </subject>
                  <effectiveDateTime value="2014-05-20T19:36:05.000-05:00"/>
                  <performer>
                     <reference value="urn:uuid:98edf9c6-06b3-4298-a6fa-48cdb013b0a4"/>
                  </performer>
                  <valueQuantity>
                     <value value="80"/>
                     <unit value="/min"/>
                  </valueQuantity>
               </Observation>
            </resource>
         </entry>
         <entry>
            <fullUrl value="urn:uuid:7e2ca92d-f93e-48ff-974e-26b83987bbc6"/>
            <resource>
               <Observation>
                  <meta>
                     <profile value="http://hl7.org/fhir/StructureDefinition/vitalsigns"/>
                     <!--CDA templateId: urn:hl7ii:2.16.840.1.113883.10.20.22.4.27:2014-06-09-->
                  </meta>
                  <identifier>
                     <system value="urn:ietf:rfc:3986"/>
                     <value value="urn:uuid:85f5784f-2958-4321-b7b6-3030d1577dc0"/>
                  </identifier>
                  <status value="final"/>
                  <category>
                     <coding>
                        <system value="http://terminology.hl7.org/CodeSystem/observation-category"/>
                        <code value="vital-signs"/>
                     </coding>
                  </category>
                  <code>
                     <coding>
                        <system value="http://loinc.org"/>
                        <code value="8310-5"/>
                        <display value="BODY TEMPERATURE"/>
                     </coding>
                  </code>
                  <subject>
                     <reference value="urn:uuid:90936bef-baac-4092-aa76-aa6127036639"/>
                  </subject>
                  <effectiveDateTime value="2014-05-20T19:36:05.000-05:00"/>
                  <performer>
                     <reference value="urn:uuid:98edf9c6-06b3-4298-a6fa-48cdb013b0a4"/>
                  </performer>
                  <valueQuantity>
                     <value value="99.0"/>
                     <unit value="[degF]"/>
                  </valueQuantity>
               </Observation>
            </resource>
         </entry>
         <entry>
            <fullUrl value="urn:uuid:add56b62-06e9-415e-8f25-99e2ded92d33"/>
            <resource>
               <Observation>
                  <meta>
                     <profile value="http://hl7.org/fhir/StructureDefinition/vitalsigns"/>
                     <!--CDA templateId: urn:hl7ii:2.16.840.1.113883.10.20.22.4.27:2014-06-09-->
                  </meta>
                  <identifier>
                     <system value="urn:ietf:rfc:3986"/>
                     <value value="urn:uuid:b618fa98-6596-4e19-a9e7-6bdb48012fc8"/>
                  </identifier>
                  <status value="final"/>
                  <category>
                     <coding>
                        <system value="http://terminology.hl7.org/CodeSystem/observation-category"/>
                        <code value="vital-signs"/>
                     </coding>
                  </category>
                  <code>
                     <coding>
                        <system value="http://loinc.org"/>
                        <code value="9279-1"/>
                        <display value="RESPIRATORY RATE"/>
                     </coding>
                  </code>
                  <subject>
                     <reference value="urn:uuid:90936bef-baac-4092-aa76-aa6127036639"/>
                  </subject>
                  <effectiveDateTime value="2014-05-20T19:36:05.000-05:00"/>
                  <performer>
                     <reference value="urn:uuid:98edf9c6-06b3-4298-a6fa-48cdb013b0a4"/>
                  </performer>
                  <valueQuantity>
                     <value value="18"/>
                     <unit value="/min"/>
                  </valueQuantity>
               </Observation>
            </resource>
         </entry>
         <entry>
            <fullUrl value="urn:uuid:2f1374ce-5952-487a-97c1-64a2616e8262"/>
            <resource>
               <Observation>
                  <meta>
                     <profile value="http://hl7.org/fhir/StructureDefinition/vitalsigns"/>
                     <!--CDA templateId: urn:hl7ii:2.16.840.1.113883.10.20.22.4.27:2014-06-09-->
                  </meta>
                  <identifier>
                     <system value="urn:ietf:rfc:3986"/>
                     <value value="urn:uuid:1b1274a9-b45f-449a-8493-08eaeaeba7d6"/>
                  </identifier>
                  <status value="final"/>
                  <category>
                     <coding>
                        <system value="http://terminology.hl7.org/CodeSystem/observation-category"/>
                        <code value="vital-signs"/>
                     </coding>
                  </category>
                  <code>
                     <coding>
                        <system value="http://loinc.org"/>
                        <code value="8302-2"/>
                        <display value="HEIGHT"/>
                     </coding>
                  </code>
                  <subject>
                     <reference value="urn:uuid:90936bef-baac-4092-aa76-aa6127036639"/>
                  </subject>
                  <effectiveDateTime value="2014-05-20T19:36:05.000-05:00"/>
                  <performer>
                     <reference value="urn:uuid:98edf9c6-06b3-4298-a6fa-48cdb013b0a4"/>
                  </performer>
                  <valueQuantity>
                     <value value="67"/>
                     <unit value="[in_us]"/>
                  </valueQuantity>
               </Observation>
            </resource>
         </entry>
         <entry>
            <fullUrl value="urn:uuid:0e087f3b-f45d-4547-98b3-6f518e96b1a1"/>
            <resource>
               <Observation>
                  <meta>
                     <profile value="http://hl7.org/fhir/StructureDefinition/vitalsigns"/>
                     <!--CDA templateId: urn:hl7ii:2.16.840.1.113883.10.20.22.4.27:2014-06-09-->
                  </meta>
                  <identifier>
                     <system value="urn:ietf:rfc:3986"/>
                     <value value="urn:uuid:1c1f89f1-8e93-4a46-b37f-9434f99727b8"/>
                  </identifier>
                  <status value="final"/>
                  <category>
                     <coding>
                        <system value="http://terminology.hl7.org/CodeSystem/observation-category"/>
                        <code value="vital-signs"/>
                     </coding>
                  </category>
                  <code>
                     <coding>
                        <system value="http://loinc.org"/>
                        <code value="3141-9"/>
                        <display value="WEIGHT"/>
                     </coding>
                  </code>
                  <subject>
                     <reference value="urn:uuid:90936bef-baac-4092-aa76-aa6127036639"/>
                  </subject>
                  <effectiveDateTime value="2014-05-20T19:36:05.000-05:00"/>
                  <performer>
                     <reference value="urn:uuid:98edf9c6-06b3-4298-a6fa-48cdb013b0a4"/>
                  </performer>
                  <valueQuantity>
                     <value value="239.9"/>
                     <unit value="[lb_av]"/>
                  </valueQuantity>
               </Observation>
            </resource>
         </entry>
         <entry>
            <fullUrl value="urn:uuid:1d2f8600-decb-44c8-b7ce-0aff5fe98a1d"/>
            <resource>
               <Observation>
                  <meta>
                     <profile value="http://hl7.org/fhir/StructureDefinition/vitalsigns"/>
                     <!--CDA templateId: urn:hl7ii:2.16.840.1.113883.10.20.22.4.27:2014-06-09-->
                  </meta>
                  <identifier>
                     <system value="urn:ietf:rfc:3986"/>
                     <value value="urn:uuid:fd4ccd0b-c045-4587-8976-a17e2e064a1e"/>
                  </identifier>
                  <status value="final"/>
                  <category>
                     <coding>
                        <system value="http://terminology.hl7.org/CodeSystem/observation-category"/>
                        <code value="vital-signs"/>
                     </coding>
                  </category>
                  <code>
                     <coding>
                        <system value="http://loinc.org"/>
                        <code value="39156-5"/>
                        <display value="BODY MASS INDEX"/>
                     </coding>
                  </code>
                  <subject>
                     <reference value="urn:uuid:90936bef-baac-4092-aa76-aa6127036639"/>
                  </subject>
                  <effectiveDateTime value="2014-05-20T19:36:05.000-05:00"/>
                  <performer>
                     <reference value="urn:uuid:98edf9c6-06b3-4298-a6fa-48cdb013b0a4"/>
                  </performer>
                  <valueQuantity>
                     <value value="37.58"/>
                     <unit value="kg/m2"/>
                  </valueQuantity>
               </Observation>
            </resource>
         </entry>
         <entry>
            <fullUrl value="urn:uuid:28970f10-574c-4c3e-bb6d-897e6cc787bc"/>
            <resource>
               <Observation>
                  <meta>
                     <profile value="http://hl7.org/fhir/StructureDefinition/vitalsigns"/>
                     <!--CDA templateId: urn:hl7ii:2.16.840.1.113883.10.20.22.4.27:2014-06-09-->
                  </meta>
                  <identifier>
                     <system value="urn:ietf:rfc:3986"/>
                     <value value="urn:uuid:0ef4afda-1638-4ad2-9978-7321bbceb0cb"/>
                  </identifier>
                  <status value="final"/>
                  <category>
                     <coding>
                        <system value="http://terminology.hl7.org/CodeSystem/observation-category"/>
                        <code value="vital-signs"/>
                     </coding>
                  </category>
                  <code>
                     <coding>
                        <system value="http://loinc.org"/>
                        <code value="2710-2"/>
                        <display value="OXYGEN SATURATION"/>
                     </coding>
                  </code>
                  <subject>
                     <reference value="urn:uuid:90936bef-baac-4092-aa76-aa6127036639"/>
                  </subject>
                  <effectiveDateTime value="2014-05-20T19:36:05.000-05:00"/>
                  <performer>
                     <reference value="urn:uuid:98edf9c6-06b3-4298-a6fa-48cdb013b0a4"/>
                  </performer>
                  <valueQuantity>
                     <value value="98"/>
                     <unit value="%"/>
                  </valueQuantity>
               </Observation>
            </resource>
         </entry>
         <entry>
            <fullUrl value="urn:uuid:a740651c-08d2-4d4d-bab6-d0b48dc49227"/>
            <resource>
               <Observation><!--Processing as generic observation: 2.16.840.1.113883.10.20.15.2.3.40:-->
                  <meta>
                     <profile value="http://hl7.org/fhir/us/ecr/StructureDefinition/us-ph-emergency-outbreak-information"/>
                     <!--CDA templateId: urn:hl7ii:2.16.840.1.113883.10.20.15.2.3.40:2021-01-01-->
                  </meta>
                  <identifier>
                     <system value="urn:ietf:rfc:3986"/>
                     <value value="urn:uuid:ab1791b0-5c71-11db-b0de-0800200c9a54"/>
                  </identifier>
                  <status value="final"/>
                  <code>
                     <coding>
                        <system value="http://terminology.hl7.org/CodeSystem/v3-NullFlavor"/>
                        <code value="OTH"/>
                        <display value="Other"/>
                     </coding>
                     <text value="Employee desk distance from mail sorter"/>
                  </code>
                  <subject>
                     <reference value="urn:uuid:90936bef-baac-4092-aa76-aa6127036639"/>
                  </subject>
                  <effectivePeriod>
                     <start value="2020-11-01"/>
                  </effectivePeriod>
                  <!--Using document effective time as issued date-->
                  <issued value="2020-11-07T09:44:21.000-05:00"/>
                  <performer/>
                  <valueQuantity>
                     <value value="2"/>
                     <unit value="m"/>
                  </valueQuantity>
               </Observation>
            </resource>
         </entry>
         <entry>
            <fullUrl value="urn:uuid:051a3f49-22ac-492e-a3c3-063315e8073f"/>
            <resource><!--Relevant Reportable Condition Observation-->
               <Observation>
                  <meta>
                     <profile value="http://hl7.org/fhir/us/ecr/StructureDefinition/rr-relevant-reportable-condition-observation"/>
                     <!--CDA templateId: urn:hl7ii:2.16.840.1.113883.10.20.15.2.3.12:2017-04-01-->
                  </meta>
                  <identifier>
                     <system value="urn:ietf:rfc:3986"/>
                     <value value="urn:uuid:a054d401-7b23-4b15-bc28-c889c156ba6a"/>
                  </identifier>
                  <status value="final"/>
                  <code>
                     <coding>
                        <system value="http://snomed.info/sct"/>
                        <code value="64572001"/>
                        <display value="Condition"/>
                     </coding>
                     <coding>
                        <system value="http://loinc.org"/>
                        <code value="75323-6"/>
                        <display value="Condition"/>
                     </coding>
                  </code>
                  <subject>
                     <reference value="urn:uuid:90936bef-baac-4092-aa76-aa6127036639"/>
                  </subject>
                  <valueCodeableConcept>
                     <coding>
                        <system value="http://snomed.info/sct"/>
                        <code value="3928002"/>
                        <display value="Zika virus disease (disorder)"/>
                     </coding>
                  </valueCodeableConcept>
                  <hasMember><!--2.16.840.1.113883.10.20.15.2.3.13:2017-04-01-->
                     <reference value="urn:uuid:7001a724-339b-4610-9475-a6ece096b6d4"/>
                  </hasMember>
               </Observation>
            </resource>
         </entry>
         <entry>
            <fullUrl value="urn:uuid:7001a724-339b-4610-9475-a6ece096b6d4"/>
            <resource><!--Reportability Information Observation-->
               <Observation>
                  <meta>
                     <profile value="http://hl7.org/fhir/us/ecr/StructureDefinition/rr-reportability-information-observation"/>
                     <!--CDA templateId: urn:hl7ii:2.16.840.1.113883.10.20.15.2.3.13:2017-04-01-->
                  </meta>
                  <extension url="http://hl7.org/fhir/us/ecr/StructureDefinition/us-ph-determination-of-reportability-extension">
                     <valueCodeableConcept>
                        <coding>
                           <system value="urn:oid:2.16.840.1.114222.4.5.274"/>
                           <code value="RRVS1"/>
                           <display value="Reportable"/>
                        </coding>
                     </valueCodeableConcept>
                  </extension>
                  <extension url="http://hl7.org/fhir/us/ecr/StructureDefinition/us-ph-determination-of-reportability-reason-extension">
                     <valueString value="Reason for determination of reportability"/>
                  </extension>
                  <extension url="http://hl7.org/fhir/us/ecr/StructureDefinition/us-ph-determination-of-reportability-rule-extension">
                     <valueString value="Rule used in reportability determination"/>
                  </extension>
                  <identifier>
                     <system value="urn:ietf:rfc:3986"/>
                     <value value="urn:uuid:fcf92143-4289-450e-9550-8d574facf626"/>
                  </identifier>
                  <status value="final"/>
                  <code>
                     <coding>
                        <system value="urn:oid:2.16.840.1.114222.4.5.274"/>
                        <code value="RRVS7"/>
                        <display value="Both patient home address and provider facility address"/>
                     </coding>
                  </code>
                  <subject>
                     <reference value="urn:uuid:90936bef-baac-4092-aa76-aa6127036639"/>
                  </subject>
                  <performer>
                     <reference value="urn:uuid:bb16fd22-9832-4e24-9550-4adb2419b537"/>
                  </performer>
                  <performer>
                     <reference value="urn:uuid:f8c60b39-28d9-4b47-bca5-efb22cbecbf6"/>
                  </performer>
                  <performer>
                     <reference value="urn:uuid:72d8acea-89a8-4ccc-8284-9ff09b5a8019"/>
                  </performer>
               </Observation>
            </resource>
         </entry>
         <entry>
            <fullUrl value="urn:uuid:bb16fd22-9832-4e24-9550-4adb2419b537"/>
            <resource>
               <Organization>
                  <meta>
                     <profile value="http://hl7.org/fhir/us/ecr/StructureDefinition/rr-responsible-agency-organization"/>
                  </meta>
                  <!--participant[LOC]-->
                  <identifier>
                     <system value="http://hl7.org/fhir/sid/us-npi"/>
                     <value value="12341234"/>
                  </identifier>
                  <active value="true"/>
                  <type>
                     <coding>
                        <system value="urn:oid:2.16.840.1.114222.4.5.232"/>
                        <code value="RR8"/>
                        <display value="Responsible Agency"/>
                     </coding>
                  </type>
                  <name value="State Department of Health"/>
                  <telecom>
                     <system value="phone"/>
                     <value value="+1-555-555-3555"/>
                     <use value="work"/>
                  </telecom>
                  <telecom>
                     <system value="fax"/>
                     <value value="+1-955-555-3555"/>
                     <use value="work"/>
                  </telecom>
                  <telecom>
                     <system value="email"/>
                     <value value="mail@healthauthoritywest.gov"/>
                     <use value="work"/>
                  </telecom>
                  <telecom>
                     <system value="url"/>
                     <value value="https://www.healthauthoritywest.gov"/>
                     <use value="work"/>
                  </telecom>
                  <address>
                     <use value="work"/>
                     <line value="7777 Health Authority Drive"/>
                     <state value="State"/>
                     <postalCode value="99999"/>
                  </address>
               </Organization>
            </resource>
         </entry>
         <entry>
            <fullUrl value="urn:uuid:f8c60b39-28d9-4b47-bca5-efb22cbecbf6"/>
            <resource>
               <Organization>
                  <meta>
                     <profile value="http://hl7.org/fhir/us/ecr/StructureDefinition/rr-rules-authoring-agency-organization"/>
                  </meta>
                  <!--participant[LOC]-->
                  <identifier>
                     <system value="http://hl7.org/fhir/sid/us-npi"/>
                     <value value="12341234"/>
                  </identifier>
                  <active value="true"/>
                  <type>
                     <coding>
                        <system value="urn:oid:2.16.840.1.114222.4.5.232"/>
                        <code value="RR12"/>
                        <display value="Rules Authoring Agency"/>
                     </coding>
                  </type>
                  <name value="State Department of Health"/>
                  <telecom>
                     <system value="phone"/>
                     <value value="+1-555-555-3555"/>
                     <use value="work"/>
                  </telecom>
                  <telecom>
                     <system value="fax"/>
                     <value value="+1-955-555-3555"/>
                     <use value="work"/>
                  </telecom>
                  <telecom>
                     <system value="email"/>
                     <value value="mail@healthauthoritywest.gov"/>
                     <use value="work"/>
                  </telecom>
                  <telecom>
                     <system value="url"/>
                     <value value="https://www.healthauthoritywest.gov"/>
                     <use value="work"/>
                  </telecom>
                  <address>
                     <use value="work"/>
                     <line value="7777 Health Authority Drive"/>
                     <city value="City"/>
                     <state value="State"/>
                     <postalCode value="99999"/>
                  </address>
               </Organization>
            </resource>
         </entry>
         <entry>
            <fullUrl value="urn:uuid:72d8acea-89a8-4ccc-8284-9ff09b5a8019"/>
            <resource>
               <Organization>
                  <meta>
                     <profile value="http://hl7.org/fhir/us/ecr/StructureDefinition/rr-routing-entity-organization"/>
                  </meta>
                  <!--participant[LOC]-->
                  <identifier>
                     <system value="http://hl7.org/fhir/sid/us-npi"/>
                     <value value="43214321"/>
                  </identifier>
                  <active value="true"/>
                  <type>
                     <coding>
                        <system value="urn:oid:2.16.840.1.114222.4.5.232"/>
                        <code value="RR7"/>
                        <display value="Routing Entity"/>
                     </coding>
                  </type>
                  <name value="State Department of Health Routing Agency"/>
                  <telecom>
                     <system value="phone"/>
                     <value value="+1-555-555-3555"/>
                     <use value="work"/>
                  </telecom>
                  <telecom>
                     <system value="fax"/>
                     <value value="+1-955-555-3555"/>
                     <use value="work"/>
                  </telecom>
                  <telecom>
                     <system value="email"/>
                     <value value="mail@healthauthoritywest.gov"/>
                     <use value="work"/>
                  </telecom>
                  <telecom>
                     <system value="url"/>
                     <value value="https://www.healthauthoritywest.gov"/>
                     <use value="work"/>
                  </telecom>
                  <address>
                     <use value="work"/>
                     <line value="7777 Health Authority Drive"/>
                     <city value="City"/>
                     <state value="State"/>
                     <postalCode value="99999"/>
                  </address>
               </Organization>
            </resource>
         </entry>
      </Bundle>
   </content-wrap>
</result>
