<?xml version="1.0" encoding="UTF-8"?>
<Bundle xmlns:uuid="http://www.uuid.org" xmlns="http://hl7.org/fhir">
   <id value="bundle-document-med-admin-patient-med-admin-1"/>
   <identifier>
      <system value="urn:ietf:rfc:3986"/>
      <value value="urn:uuid:6AB20823-70C6-11EB-1614-09173F13E4C5"/>
   </identifier>
   <type value="document"/>
   <timestamp value="2021-02-17T12:18:26.082+10:00"/>
   <entry>
      <fullUrl value="http://example.org/fake-fhir-server/Composition/composition-med-admin-patient-med-admin-1"/>
      <resource>
         <Composition>
            <id value="composition-med-admin-patient-med-admin-1"/>
            <meta>
               <profile value="http://hl7.org/fhir/us/imp-med-admin/StructureDefinition/Composition-inpatient-med-admin"/>
            </meta>
            <status value="final"/>
            <type>
               <coding>
                  <system value="http://loinc.org"/>
                  <code value="87231-7"/>
                  <display value="Medication administration.extended Document"/>
               </coding>
            </type>
            <subject>
               <reference value="Patient/patient-med-admin-1"/>
            </subject>
            <encounter>
               <reference value="Encounter/encounter-completed-inpatient-med-admin-1"/>
            </encounter>
            <date value="2021-01-01"/>
            <author>
               <reference value="Organization/organization-salem-medical-center"/>
               <display value="Salem Medical Center, 22222 Health Authority Drive, Ann Arbor MI, 99999"/>
            </author>
            <title value="Inpatient Medication Administration"/>
            <section>
               <title value="Medication Section"/>
               <code>
                  <coding>
                     <system value="http://loinc.org"/>
                     <code value="10160-0"/>
                     <display value="History of Medication use Narrative"/>
                  </coding>
               </code>
               <entry>
                  <reference value="MedicationRequest/medicationrequest-med-admin-1"/>
               </entry>
            </section>
            <section>
               <title value="Problems Section"/>
               <code>
                  <coding>
                     <system value="http://loinc.org"/>
                     <code value="11450-4"/>
                     <display value="Problem list - Reported"/>
                  </coding>
               </code>
               <entry>
                  <reference value="Condition/condition-hypertension-med-admin-1"/>
               </entry>
            </section>
            <section>
               <title value="Results Section"/>
               <code>
                  <coding>
                     <system value="http://loinc.org"/>
                     <code value="30954-2"/>
                     <display value="Relevant Dx tests/lab data"/>
                  </coding>
               </code>
               <entry>
                  <reference value="Observation/observation-lab-sars-cov-med-admin"/>
               </entry>
            </section>
         </Composition>
      </resource>
   </entry>
   <entry>
      <fullUrl value="http://example.org/fake-fhir-server/Observation/observation-lab-sars-cov-med-admin"/>
      <resource>
         <Observation>
            <id value="observation-lab-sars-cov-med-admin"/>
            <meta>
               <versionId value="2"/>
               <lastUpdated value="2021-02-09T22:58:16.108+00:00"/>
               <source value="#u3evrv7hPoMqWY9W"/>
               <profile value="http://hl7.org/fhir/us/imp-med-admin/StructureDefinition/Observation-lab-sars-cov"/>
            </meta>
            <status value="final"/>
            <category>
               <coding>
                  <system value="http://terminology.hl7.org/CodeSystem/observation-category"/>
                  <code value="laboratory"/>
                  <display value="Laboratory"/>
               </coding>
               <text value="Laboratory"/>
            </category>
            <code>
               <coding>
                  <system value="http://loinc.org"/>
                  <code value="94564-2"/>
                  <display value="SARS-CoV-2 (COVID-19) IgM Ab [Presence] in Serum or Plasma by Immunoassay"/>
               </coding>
               <text value="SARS-CoV-2 (COVID-19) IgM Ab [Presence] in Serum or Plasma by Immunoassay"/>
            </code>
            <subject>
               <reference value="Patient/patient-med-admin-1"/>
               <display value="Name: 'masked'"/>
            </subject>
            <effectiveDateTime value="2021-01-02"/>
         </Observation>
      </resource>
   </entry>
   <entry>
      <fullUrl value="http://example.org/fake-fhir-server/MedicationRequest/medicationrequest-med-admin-1"/>
      <resource>
         <MedicationRequest>
            <id value="medicationrequest-med-admin-1"/>
            <meta>
               <versionId value="3"/>
               <lastUpdated value="2021-02-09T22:54:25.185+00:00"/>
               <source value="#2qVAdxXcQx9AjJ24"/>
               <profile value="http://hl7.org/fhir/us/core/StructureDefinition/us-core-medicationrequest"/>
            </meta>
            <status value="completed"/>
            <intent value="order"/>
            <medicationCodeableConcept>
               <coding>
                  <system value="http://www.nlm.nih.gov/research/umls/rxnorm"/>
                  <code value="617311"/>
                  <display value="atorvastatin calcium 40 MG Oral Tablet"/>
               </coding>
               <text value="atorvastatin calcium 40 MG Oral Tablet"/>
            </medicationCodeableConcept>
            <subject>
               <reference value="Patient/patient-med-admin-1"/>
               <display value="Name: 'masked'"/>
            </subject>
            <encounter>
               <reference value="Encounter/encounter-completed-inpatient-med-admin-1"/>
               <display value="Inpatient encounter for name 'masked'"/>
            </encounter>
            <authoredOn value="2021-01-03"/>
            <requester>
               <reference value="Practitioner/practitioner-med-admin-henry-seven"/>
               <display value="Henry Seven, MD"/>
            </requester>
            <dosageInstruction>
               <route>
                  <coding>
                     <system value="http://snomed.info/sct"/>
                     <code value="26643006"/>
                     <display value="Oral route (qualifier value)"/>
                  </coding>
                  <text value="Oral route (qualifier value)"/>
               </route>
               <doseAndRate>
                  <doseQuantity>
                     <value value="40"/>
                     <unit value="MG"/>
                  </doseQuantity>
               </doseAndRate>
            </dosageInstruction>
         </MedicationRequest>
      </resource>
   </entry>
   <entry>
      <fullUrl value="http://example.org/fake-fhir-server/Condition/condition-hypertension-med-admin-1"/>
      <resource>
         <Condition>
            <id value="condition-hypertension-med-admin-1"/>
            <meta>
               <versionId value="1"/>
               <lastUpdated value="2021-02-10T03:08:19.624+00:00"/>
               <source value="#fcDFDLc0nh6DzGxE"/>
               <profile value="http://hl7.org/fhir/us/core/StructureDefinition/us-core-condition"/>
            </meta>
            <clinicalStatus>
               <coding>
                  <system value="http://terminology.hl7.org/CodeSystem/condition-clinical"/>
                  <code value="active"/>
               </coding>
            </clinicalStatus>
            <verificationStatus>
               <coding>
                  <system value="http://terminology.hl7.org/CodeSystem/condition-ver-status"/>
                  <code value="confirmed"/>
               </coding>
            </verificationStatus>
            <category>
               <coding>
                  <system value="http://terminology.hl7.org/CodeSystem/condition-category"/>
                  <code value="problem-list-item"/>
                  <display value="Problem List Item"/>
               </coding>
            </category>
            <code>
               <coding>
                  <system value="http://snomed.info/sct"/>
                  <code value="38341003"/>
                  <display value="Hypertensive disorder, systemic arterial (disorder)"/>
               </coding>
            </code>
            <subject>
               <reference value="Patient/patient-med-admin-1"/>
               <display value="Name: 'masked'"/>
            </subject>
            <onsetDateTime value="2019-01-02T10:30:35-06:00"/>
            <recordedDate value="2019-01-02T10:30:35-06:00"/>
         </Condition>
      </resource>
   </entry>
   <entry>
      <fullUrl value="http://example.org/fake-fhir-server/Encounter/encounter-completed-inpatient-med-admin-1"/>
      <resource>
         <Encounter>
            <id value="encounter-completed-inpatient-med-admin-1"/>
            <meta>
               <versionId value="2"/>
               <lastUpdated value="2021-02-10T03:08:19.621+00:00"/>
               <source value="#qmyg9wZJY8AqPIqz"/>
               <profile value="http://hl7.org/fhir/us/core/StructureDefinition/us-core-encounter"/>
            </meta>
            <status value="finished"/>
            <class>
               <system value="http://terminology.hl7.org/CodeSystem/v3-ActCode"/>
               <code value="IMP"/>
               <display value="inpatient encounter"/>
            </class>
            <type>
               <coding>
                  <system value="http://snomed.info/sct"/>
                  <code value="24882007"/>
               </coding>
               <text value="Medical consultation on hospital inpatient"/>
            </type>
            <subject>
               <reference value="Patient/patient-med-admin-1"/>
               <display value="Name: 'masked'"/>
            </subject>
            <period>
               <start value="2021-01-01"/>
               <end value="2021-01-12"/>
            </period>
            <diagnosis>
               <condition>
                  <reference value="Condition/condition-lab-confirmed-covid-med-admin-1"/>
               </condition>
            </diagnosis>
            <hospitalization>
               <dischargeDisposition>
                  <coding>
                     <system value="http://terminology.hl7.org/CodeSystem/discharge-disposition"/>
                     <code value="home"/>
                  </coding>
                  <text value="Discharged to home"/>
               </dischargeDisposition>
            </hospitalization>
            <location>
               <location>
                  <reference value="Location/location-salem-medical-center"/>
                  <display value="Clinic Bldg A, Salem Medical Center, 4646 Brown Rd, Salem, MA 02368"/>
               </location>
            </location>
            <serviceProvider>
               <reference value="Organization/organization-salem-medical-center"/>
               <display value="Salem Medical Center, 22222 Health Authority Drive, Ann Arbor MI, 99999"/>
            </serviceProvider>
         </Encounter>
      </resource>
   </entry>
   <entry>
      <fullUrl value="http://example.org/fake-fhir-server/Condition/condition-lab-confirmed-covid-med-admin-1"/>
      <resource>
         <Condition>
            <id value="condition-lab-confirmed-covid-med-admin-1"/>
            <meta>
               <versionId value="7"/>
               <lastUpdated value="2021-02-09T22:58:16.108+00:00"/>
               <source value="#u3evrv7hPoMqWY9W"/>
               <profile value="http://hl7.org/fhir/us/core/StructureDefinition/us-core-condition"/>
            </meta>
            <clinicalStatus>
               <coding>
                  <system value="http://terminology.hl7.org/CodeSystem/condition-clinical"/>
                  <code value="active"/>
               </coding>
            </clinicalStatus>
            <verificationStatus>
               <coding>
                  <system value="http://terminology.hl7.org/CodeSystem/condition-ver-status"/>
                  <code value="confirmed"/>
               </coding>
            </verificationStatus>
            <category>
               <coding>
                  <system value="http://terminology.hl7.org/CodeSystem/condition-category"/>
                  <code value="encounter-diagnosis"/>
                  <display value="Encounter Diagnosis"/>
               </coding>
            </category>
            <code>
               <coding>
                  <system value="http://snomed.info/sct"/>
                  <code value="840539006"/>
                  <display value="Disease caused by Severe acute respiratory syndrome coronavirus 2 (disorder)"/>
               </coding>
            </code>
            <subject>
               <reference value="Patient/patient-med-admin-1"/>
               <display value="Name: 'masked'"/>
            </subject>
            <encounter>
               <reference value="Encounter/encounter-completed-inpatient-med-admin-1"/>
            </encounter>
            <onsetDateTime value="2021-08-02T10:30:35-06:00"/>
            <recordedDate value="2021-08-02T10:30:35-06:00"/>
         </Condition>
      </resource>
   </entry>
   <entry>
      <fullUrl value="http://example.org/fake-fhir-server/Location/location-salem-medical-center"/>
      <resource>
         <Location>
            <id value="location-salem-medical-center"/>
            <meta>
               <versionId value="1"/>
               <lastUpdated value="2021-02-09T22:30:21.473+00:00"/>
               <source value="#xaEVbghWqx3GccxV"/>
               <profile value="http://hl7.org/fhir/us/core/StructureDefinition/us-core-location"/>
            </meta>
            <status value="active"/>
            <name value="Clinic Bldg A, Salem Medical Center"/>
            <type>
               <coding>
                  <system value="http://terminology.hl7.org/CodeSystem/v3-RoleCode"/>
                  <code value="HOSP"/>
                  <display value="Hospital"/>
               </coding>
            </type>
            <telecom>
               <system value="phone"/>
               <value value="(+1) (555)555-3001"/>
            </telecom>
            <telecom>
               <system value="fax"/>
               <value value="(+1) (555)555-3002"/>
            </telecom>
            <telecom>
               <system value="email"/>
               <value value="mail@smc.org"/>
            </telecom>
            <address>
               <line value="Clinic Bldg A"/>
               <line value="4444 Healthcare Drive"/>
               <city value="Ann Arbor"/>
               <state value="MI"/>
               <postalCode value="99999"/>
            </address>
            <managingOrganization>
               <reference value="Organization/organization-salem-medical-center"/>
            </managingOrganization>
         </Location>
      </resource>
   </entry>
   <entry>
      <fullUrl value="http://example.org/fake-fhir-server/Patient/patient-med-admin-1"/>
      <resource>
         <Patient>
            <id value="patient-med-admin-1"/>
            <meta>
               <versionId value="1"/>
               <lastUpdated value="2021-02-09T22:30:21.473+00:00"/>
               <source value="#xaEVbghWqx3GccxV"/>
               <profile value="http://hl7.org/fhir/us/core/StructureDefinition/us-core-patient"/>
            </meta>
            <text>
               <status value="generated"/>
               <div xmlns="http://www.w3.org/1999/xhtml">
                  <div class="hapiHeaderText"/>
                  <table class="hapiPropertyTable">
                     <tbody>
                        <tr>
                           <td>Identifier</td>
                           <td/>
                        </tr>
                        <tr>
                           <td>Date of birth</td>
                           <td>
                              <span>24 November 1974</span>
                           </td>
                        </tr>
                     </tbody>
                  </table>
               </div>
            </text>
            <extension url="http://hl7.org/fhir/us/core/StructureDefinition/us-core-race">
               <extension url="ombCategory">
                  <valueCoding>
                     <system value="urn:oid:2.16.840.1.113883.6.238"/>
                     <code value="2106-3"/>
                     <display value="White"/>
                  </valueCoding>
               </extension>
               <extension url="text">
                  <valueString value="White"/>
               </extension>
            </extension>
            <extension url="http://hl7.org/fhir/us/core/StructureDefinition/us-core-ethnicity">
               <extension url="ombCategory">
                  <valueCoding>
                     <system value="urn:oid:2.16.840.1.113883.6.238"/>
                     <code value="2186-5"/>
                     <display value="Not Hispanic or Latino"/>
                  </valueCoding>
               </extension>
               <extension url="text">
                  <valueString value="Not Hispanic or Latino"/>
               </extension>
            </extension>
            <extension url="http://hl7.org/fhir/us/core/StructureDefinition/us-core-birthsex">
               <valueCode value="F"/>
            </extension>
            <identifier>
               <system value="http://hospital.smarthealthit.org"/>
               <value>
                  <extension url="http://hl7.org/fhir/StructureDefinition/data-absent-reason">
                     <valueCode value="masked"/>
                  </extension>
               </value>
            </identifier>
            <active value="true"/>
            <name>
               <extension url="http://hl7.org/fhir/StructureDefinition/data-absent-reason">
                  <valueCode value="masked"/>
               </extension>
            </name>
            <gender value="female"/>
            <birthDate value="1974-11-24"/>
         </Patient>
      </resource>
   </entry>
   <entry>
      <fullUrl value="http://example.org/fake-fhir-server/Practitioner/practitioner-med-admin-henry-seven"/>
      <resource/>
   </entry>
   <entry>
      <fullUrl value="http://example.org/fake-fhir-server/Organization/organization-salem-medical-center"/>
      <resource/>
   </entry>
</Bundle>
