<Bundle xmlns="http://hl7.org/fhir">
    <id value="eICR-FHIR-003_R2" />
    <meta>
        <profile value="http://hl7.org/fhir/us/ecr/StructureDefinition/eicr-document-bundle" />
    </meta>
    <identifier>
        <system value="urn:ietf:rfc:3986" />
        <value value="urn:uuid:0070e7b2-9893-4044-b255-73da1649c9fe" />
    </identifier>
    <type value="document" />
    <timestamp value="2021-06-30T22:13:23Z" />
    <entry>
        <fullUrl value="http://example.org/fhir/Composition/composition-eicr-zika" />
        <resource>
            <Composition>
                <id value="composition-eicr-zika" />
                <meta>
                    <versionId value="11" />
                    <lastUpdated value="2021-07-01T07:50:17.685+00:00" />
                    <source value="#q3JLwkiKySxVoWon" />
                    <profile value="http://hl7.org/fhir/us/ecr/StructureDefinition/eicr-composition" />
                </meta>
                <text>
                    <status value="generated" />
                    <div xmlns="http://www.w3.org/1999/xhtml">
                        <p>Empty for testing</p>
                    </div>
                </text>
                <extension url="http://hl7.org/fhir/StructureDefinition/composition-clinicaldocument-versionNumber">
                    <valueString value="1" />
                </extension>
                <identifier>
                    <value value="c03eab8c-11e8-4d0c-ad2a-b385395e27db" />
                </identifier>
                <status value="final" />
                <type>
                    <coding>
                        <system value="http://loinc.org" />
                        <code value="55751-2" />
                        <display value="Public Health Case Report" />
                    </coding>
                </type>
                <subject>
                    <reference value="Patient/patient-ecr-eve-everywoman" />
                    <display value="Eve Everywoman" />
                </subject>
                <encounter>
                    <reference value="Encounter/encounter-eicr-eve-everywoman-outpatient" />
                    <display value="Ambulatory Office Visit" />
                </encounter>
                <date value="2018-01-02T22:13:23Z" />
                <author>
                    <reference value="PractitionerRole/practitionerrole-henry-seven" />
                    <display value="Henry Seven, MD" />
                </author>
                <title value="Initial Public Health Case Report - Zika Example" />
                <section>
                    <title value="Chief Complaint and Reason for Visit Section" />
                    <code>
                        <coding>
                            <system value="http://loinc.org" />
                            <code value="46239-0" />
                            <display value="Chief complaint+Reason for visit Narrative" />
                        </coding>
                    </code>
                    <text>
                        <status value="generated" />
                        <div xmlns="http://www.w3.org/1999/xhtml">
                            <p>Empty for testing</p>
                        </div>
                    </text>
                </section>
                <section>
                    <title value="History of Present Illness Section" />
                    <code>
                        <coding>
                            <system value="http://loinc.org" />
                            <code value="10164-2" />
                            <display value="History of Present illness Narrative" />
                        </coding>
                    </code>
                    <text>
                        <status value="generated" />
                        <div xmlns="http://www.w3.org/1999/xhtml">
                            <p>Empty for testing</p>
                        </div>
                    </text>
                </section>
                <section>
                    <title value="Problems Section" />
                    <code>
                        <coding>
                            <system value="http://loinc.org" />
                            <code value="11450-4" />
                            <display value="Problem list - Reported" />
                        </coding>
                    </code>
                    <text>
                        <status value="generated" />
                        <div xmlns="http://www.w3.org/1999/xhtml">
                            <p>Empty for testing</p>
                        </div>
                    </text>
                    <entry>
                        <reference value="Condition/condition-eicr-eve-everywoman-common-cold" />
                        <display value="Common cold (disorder)" />
                    </entry>
                </section>
                <section>
                    <title value="Medications Administered Section" />
                    <code>
                        <coding>
                            <system value="http://loinc.org" />
                            <code value="29549-3" />
                            <display value="Medication administered Narrative" />
                        </coding>
                    </code>
                    <text>
                        <status value="generated" />
                        <div xmlns="http://www.w3.org/1999/xhtml">
                            <p>Empty for testing</p>
                        </div>
                    </text>
                    <entry>
                        <reference value="MedicationAdministration/medicationadministration-eve-everywoman-azithromycin" />
                        <display value="Azithromycin 500 MG Oral Tablet" />
                    </entry>
                </section>
                <section>
                    <title value="Admission Medications Section" />
                    <code>
                        <coding>
                            <system value="http://loinc.org" />
                            <code value="42346-7" />
                            <display value="Medications on admission (narrative)" />
                        </coding>
                    </code>
                    <text>
                        <status value="generated" />
                        <div xmlns="http://www.w3.org/1999/xhtml">
                            <p>Empty for testing</p>
                        </div>
                    </text>
                </section>
                <section>
                    <title value="Medications Section" />
                    <code>
                        <coding>
                            <system value="http://loinc.org" />
                            <code value="10160-0" />
                            <display value="History of Medication use Narrative" />
                        </coding>
                    </code>
                    <text>
                        <status value="generated" />
                        <div xmlns="http://www.w3.org/1999/xhtml">
                            <p>Empty for testing</p>
                        </div>
                    </text>
                </section>
                <section>
                    <title value="Results Section" />
                    <code>
                        <coding>
                            <system value="http://loinc.org" />
                            <code value="30954-2" />
                            <display value="Relevant Dx tests/lab data" />
                        </coding>
                    </code>
                    <text>
                        <status value="generated" />
                        <div xmlns="http://www.w3.org/1999/xhtml">
                            <p>Empty for testing</p>
                        </div>
                    </text>
                    <entry>
                        <reference value="Observation/observation-us-core-results-eve-everywoman-lymphocytes" />
                        <display value="Lymphocytes [#/​volume] in Blood by Automated count - Interpretation: High" />
                    </entry>
                </section>
                <section>
                    <title value="Plan of Treatment Section" />
                    <code>
                        <coding>
                            <system value="http://loinc.org" />
                            <code value="18776-5" />
                            <display value="Plan of care note" />
                        </coding>
                    </code>
                    <text>
                        <status value="generated" />
                        <div xmlns="http://www.w3.org/1999/xhtml">
                            <p>Empty for testing</p>
                        </div>
                    </text>
                    <entry>
                        <extension url="http://hl7.org/fhir/us/ecr/StructureDefinition/eicr-trigger-code-flag-extension">
                            <extension url="triggerCodeValueSet">
                                <valueOid value="urn:oid:2.16.840.1.114222.4.11.7508" />
                            </extension>
                            <extension url="triggerCodeValueSetVersion">
                                <valueString value="19/05/2018" />
                            </extension>
                            <extension url="triggerCode">
                                <valueCoding>
                                    <system value="http://loinc.org" />
                                    <code value="80825-3" />
                                    <display value="Zika virus envelope E gene [Presence] in Serum by NAA with probe detection" />
                                </valueCoding>
                            </extension>
                        </extension>
                        <reference value="ServiceRequest/servicerequest-eicr-zika" />
                        <display value="Request for Zika virus envelope (E) gene [Presence] in Serum by Probe and target amplification method" />
                    </entry>
                </section>
                <section>
                    <title value="Immunizations Section" />
                    <code>
                        <coding>
                            <system value="http://loinc.org" />
                            <code value="11369-6" />
                            <display value="History of Immunization Narrative" />
                        </coding>
                    </code>
                    <text>
                        <status value="generated" />
                        <div xmlns="http://www.w3.org/1999/xhtml">
                            <p>Empty for testing</p>
                        </div>
                    </text>
                    <entry>
                        <reference value="Immunization/immunization-ecr-pneumo" />
                        <display value="Immunization: pneumococcal polysaccharide vaccine" />
                    </entry>
                </section>
                <section>
                    <title value="Procedures Section" />
                    <code>
                        <coding>
                            <system value="http://loinc.org" />
                            <code value="47519-4" />
                            <display value="History of Procedures Document" />
                        </coding>
                    </code>
                    <div xmlns="http://www.w3.org/1999/xhtml">
                        <p>Empty for testing</p>
                    </div>
                    <entry>
                        <reference value="Procedure/us-ph-procedure-ecmo" />
                        <display value="Procedure: pneumococcal polysaccharide vaccine" />
                    </entry>
                </section>
                <section>
                    <title value="Vital Signs Section" />
                    <code>
                        <coding>
                            <system value="http://loinc.org" />
                            <code value="8716-3" />
                            <display value="Vital signs" />
                        </coding>
                    </code>
                    <text>
                        <status value="generated" />
                        <div xmlns="http://www.w3.org/1999/xhtml">
                            <p>Empty for testing</p>
                        </div>
                    </text>
                </section>
                <section>
                    <title value="Social History Section" />
                    <code>
                        <coding>
                            <system value="http://loinc.org" />
                            <code value="29762-2" />
                            <display value="Social history Narrative" />
                        </coding>
                    </code>
                    <text>
                        <status value="generated" />
                        <div xmlns="http://www.w3.org/1999/xhtml">
                            <p>Empty for testing</p>
                        </div>
                    </text>
                    <entry>
                        <reference value="Observation/observation-travel-history-eve-everywoman-201801" />
                        <display value="eICR Travel History: Eve Everywoman 2018-01" />
                    </entry>
                    <entry>
                        <reference value="Observation/observation-travel-history-eve-everywoman-201610" />
                        <display value="eICR Travel History: Eve Everywoman 2016-10" />
                    </entry>
                    <entry>
                        <reference value="Observation/observation-odh-usual-work-eve-everywoman" />
                        <display value="ODH Usual Work Example" />
                    </entry>
                    <entry>
                        <reference value="Observation/observation-disability-status-eve-everywoman" />
                        <display value="US Public Health Disability Status Example" />
                    </entry>
                    <entry>
                        <reference value="Observation/observation-us-ph-exposure-contact-info-football-game" />
                        <display value="US Public Health Exposure Contact Information Example" />
                    </entry>
                </section>
                <section>
                    <title value="Pregnancy Section" />
                    <code>
                        <coding>
                            <system value="http://loinc.org" />
                            <code value="90767-5" />
                            <display value="Pregnancy summary Document" />
                        </coding>
                    </code>
                    <text>
                        <status value="generated" />
                        <div xmlns="http://www.w3.org/1999/xhtml">
                            <p>Empty for testing</p>
                        </div>
                    </text>
                    <entry>
                        <reference value="Observation/observation-pregnancy-status-eve-everywoman" />
                        <display value="eICR Pregnancy Status Example" />
                    </entry>
                </section>
                <section>
                    <title value="Emergency Outbreak Information Section" />
                    <code>
                        <coding>
                            <system value="http://loinc.org" />
                            <code value="83910-0" />
                            <display value="Public health Note" />
                        </coding>
                    </code>
                    <text>
                        <status value="generated" />
                        <div xmlns="http://www.w3.org/1999/xhtml">
                            <p>Empty for testing</p>
                        </div>
                    </text>
                    <entry>
                        <reference value="Observation/observation-us-ph-emergency-outbreak-info-eve-everywoman" />
                        <display value="US Public Health Emergency Outbreak Information Example" />
                    </entry>
                </section>
                <section>
                    <title value="Past Medical History Section" />
                    <code>
                        <coding>
                            <system value="http://loinc.org" />
                            <code value="11348-0" />
                            <display value="History of Past illness Narrative" />
                        </coding>
                    </code>
                    <text>
                        <status value="generated" />
                        <div xmlns="http://www.w3.org/1999/xhtml">
                            <p>Empty for testing</p>
                        </div>
                    </text>
                </section>
                <section>
                    <title value="Review of Systems Section" />
                    <code>
                        <coding>
                            <system value="http://loinc.org" />
                            <code value="10187-3" />
                            <display value="Review of systems Narrative - Reported" />
                        </coding>
                    </code>
                    <text>
                        <status value="generated" />
                        <div xmlns="http://www.w3.org/1999/xhtml">
                            <p>Empty for testing</p>
                        </div>
                    </text>
                </section>
            </Composition>
        </resource>
    </entry>
    <entry>
        <fullUrl value="http://example.org/fhir/MedicationAdministration/medicationadministration-eve-everywoman-azithromycin" />
        <resource>
            <MedicationAdministration>
                <id value="medicationadministration-eve-everywoman-azithromycin" />
                <meta>
                    <versionId value="4" />
                    <lastUpdated value="2021-06-30T07:22:46.049+00:00" />
                    <source value="#WUV2SWqz3ej775gd" />
                </meta>
                <text>
                    <status value="generated" />
                    <div xmlns="http://www.w3.org/1999/xhtml">
                        <p>Empty for testing</p>
                    </div>
                </text>
                <status value="completed" />
                <medicationCodeableConcept>
                    <coding>
                        <system value="http://www.nlm.nih.gov/research/umls/rxnorm" />
                        <code value="248656" />
                        <display value="Azithromycin 500 MG Oral Tablet" />
                    </coding>
                    <text value="Azithromycin 500 MG Oral Tablet" />
                </medicationCodeableConcept>
                <subject>
                    <reference value="Patient/patient-ecr-eve-everywoman" />
                    <display value="Eve Everywoman" />
                </subject>
                <effectivePeriod>
                    <start value="2018-03-07" />
                    <end value="2018-03-07" />
                </effectivePeriod>
                <dosage>
                    <text value="Two tablets at once" />
                    <route>
                        <coding>
                            <system value="http://snomed.info/sct" />
                            <code value="26643006" />
                            <display value="Oral Route" />
                        </coding>
                    </route>
                    <method>
                        <coding>
                            <system value="http://snomed.info/sct" />
                            <code value="421521009" />
                            <display value="Swallow - dosing instruction imperative (qualifier value)" />
                        </coding>
                    </method>
                    <dose>
                        <value value="2" />
                        <unit value="TAB" />
                        <system value="http://terminology.hl7.org/CodeSystem/v3-orderableDrugForm" />
                        <code value="TAB" />
                    </dose>
                </dosage>
            </MedicationAdministration>
        </resource>
    </entry>
    <entry>
        <fullUrl value="http://example.org/fhir/ServiceRequest/servicerequest-eicr-zika" />
        <resource>
            <ServiceRequest>
                <id value="servicerequest-eicr-zika" />
                <meta>
                    <versionId value="4" />
                    <lastUpdated value="2021-06-30T07:22:49.340+00:00" />
                    <source value="#WUV2SWqz3ej775gd" />
                    <profile value="http://hl7.org/fhir/us/ecr/StructureDefinition/eicr-servicerequest" />
                </meta>
                <text>
                    <status value="generated" />
                    <div xmlns="http://www.w3.org/1999/xhtml">
                        <p>Empty for testing</p>
                    </div>
                </text>
                <status value="completed" />
                <intent value="order" />
                <category>
                    <coding>
                        <system value="http://snomed.info/sct" />
                        <code value="103693007" />
                        <display value="Diagnostic procedure (procedure)" />
                    </coding>
                    <text value="Diagnostics Procedure" />
                </category>
                <code>
                    <coding>
                        <system value="http://loinc.org" />
                        <code value="80825-3" />
                        <display value="Zika virus envelope E gene [Presence] in Serum by NAA with probe detection" />
                    </coding>
                    <text value="Zika RT-PCR" />
                </code>
                <subject>
                    <reference value="Patient/patient-ecr-eve-everywoman" />
                    <display value="Eve Everywoman" />
                </subject>
                <performer>
                    <reference value="Organization/organization-ecr-acme-laboratory" />
                    <display value="Acme Labs" />
                </performer>
            </ServiceRequest>
        </resource>
    </entry>
    <entry>
        <fullUrl value="http://example.org/fhir/Condition/condition-eicr-eve-everywoman-common-cold" />
        <resource>
            <Condition>
                <id value="condition-eicr-eve-everywoman-common-cold" />
                <meta>
                    <versionId value="5" />
                    <lastUpdated value="2021-06-30T07:22:51.451+00:00" />
                    <source value="#WUV2SWqz3ej775gd" />
                    <profile value="http://hl7.org/fhir/us/ecr/StructureDefinition/us-ph-condition" />
                </meta>
                <text>
                    <status value="generated" />
                    <div xmlns="http://www.w3.org/1999/xhtml">
                        <p>Empty for testing</p>
                    </div>
                </text>
                <category>
                    <coding>
                        <system value="http://terminology.hl7.org/CodeSystem/condition-category" />
                        <code value="problem-list-item" />
                        <display value="Problem List Item" />
                    </coding>
                </category>
                <code>
                    <coding>
                        <system value="http://snomed.info/sct" />
                        <code value="82272006" />
                        <display value="Common cold (disorder)" />
                    </coding>
                </code>
                <subject>
                    <reference value="Patient/patient-ecr-eve-everywoman" />
                    <display value="Eve Everywoman" />
                </subject>
                <onsetDateTime value="2017-09-23" />
                <asserter>
                    <reference value="Practitioner/practitioner-us-core-henry-seven" />
                    <display value="Henry Seven, MD" />
                </asserter>
            </Condition>
        </resource>
    </entry>
    <entry>
        <fullUrl value="http://example.org/fhir/Condition/condition-eicr-eve-everywoman-diabetes" />
        <resource>
            <Condition xmlns="http://hl7.org/fhir">
                <id value="condition-eicr-eve-everywoman-diabetes" />
                <meta>
                    <versionId value="5" />
                    <lastUpdated value="2021-06-30T07:22:37.630+00:00" />
                    <source value="#WUV2SWqz3ej775gd" />
                    <profile value="http://hl7.org/fhir/us/ecr/StructureDefinition/us-ph-condition" />
                </meta>
                <category>
                    <coding>
                        <system value="http://terminology.hl7.org/CodeSystem/condition-category" />
                        <code value="encounter-diagnosis" />
                        <display value="Encounter Diagnosis" />
                    </coding>
                </category>
                <code>
                    <coding>
                        <system value="http://snomed.info/sct" />
                        <code value="73211009" />
                        <display value="Diabetes mellitus (disorder)" />
                    </coding>
                </code>
                <subject>
                    <reference value="Patient/patient-ecr-eve-everywoman" />
                    <display value="Eve Everywoman" />
                </subject>
                <onsetDateTime value="2017-08-23" />
                <asserter>
                    <reference value="Practitioner/practitioner-us-core-henry-seven" />
                    <display value="Henry Seven, MD" />
                </asserter>
            </Condition>
        </resource>
    </entry>
    <entry>
        <fullUrl value="http://example.org/fhir/Encounter/encounter-eicr-eve-everywoman-outpatient" />
        <resource>
            <Encounter>
                <id value="encounter-eicr-eve-everywoman-outpatient" />
                <meta>
                    <versionId value="4" />
                    <lastUpdated value="2021-06-30T07:22:47.616+00:00" />
                    <source value="#WUV2SWqz3ej775gd" />
                    <profile value="http://hl7.org/fhir/us/ecr/StructureDefinition/us-ph-encounter" />
                </meta>
                <text>
                    <status value="generated" />
                    <div xmlns="http://www.w3.org/1999/xhtml">
                        <p>Empty for testing</p>
                    </div>
                </text>
                <identifier>
                    <system value="http://hospital.smarthealthit.org" />
                    <value value="9937012" />
                </identifier>
                <status value="finished" />
                <class>
                    <system value="http://terminology.hl7.org/CodeSystem/v3-ActCode" />
                    <code value="AMB" />
                    <display value="ambulatory" />
                </class>
                <type>
                    <coding>
                        <system value="http://www.ama-assn.org/go/cpt" />
                        <code value="99201" />
                    </coding>
                    <text value="Office Visit" />
                </type>
                <subject>
                    <reference value="Patient/patient-ecr-eve-everywoman" />
                    <display value="Eve Everywoman" />
                </subject>
                <participant>
                    <type>
                        <coding>
                            <system value="http://terminology.hl7.org/CodeSystem/v3-ParticipationType" />
                            <code value="ATND" />
                            <display value="attender" />
                        </coding>
                    </type>
                    <individual>
                        <reference value="PractitionerRole/practitionerrole-henry-seven" />
                        <display value="Henry Seven, MD" />
                    </individual>
                </participant>
                <participant>
                    <type>
                        <coding>
                            <system value="https://fhir.cerner.com/ec2458f2-1e24-41c8-b71b-0e701af7583d/codeSet/333" />
                            <code value="1116" />
                            <display value="Admitting Physician" />
                            <userSelected value="true" />
                        </coding>
                        <coding>
                            <system value="http://terminology.hl7.org/CodeSystem/v3-ParticipationType" />
                            <code value="ADM" />
                            <display value="admitter" />
                            <userSelected value="false" />
                        </coding>
                        <text value="Admitting Physician" />
                    </type>
                    <period>
                        <start value="2020-04-27T05:00:00.000Z" />
                    </period>
                    <individual>
                        <reference value="Practitioner/practitioner-us-core-henry-seven" />
                        <display value="Henry Seven, MD" />
                    </individual>
                </participant>
                <participant>
                    <period>
                        <start value="2020-04-27T05:00:00.000Z" />
                    </period>
                    <individual>
                        <reference value="Practitioner/practitioner-us-core-henry-seven" />
                        <display value="Henry Seven, MD" />
                    </individual>
                </participant>

                <period>
                    <start value="2018-04-01T10:00:00-05:00" />
                    <end value="2018-04-02T10:15:00-05:00" />
                </period>
                <diagnosis>
                    <extension url="http://hl7.org/fhir/us/ecr/StructureDefinition/eicr-trigger-code-flag-extension">
                        <extension url="triggerCodeValueSet">
                            <valueOid value="urn:oid:2.16.840.1.114222.4.11.7508" />
                        </extension>
                        <extension url="triggerCodeValueSetVersion">
                            <valueString value="12/12/2018" />
                        </extension>
                        <extension url="triggerCode">
                            <valueCoding>
                                <system value="http://snomed.info/sct" />
                                <code value="3928002" />
                                <display value="Zika virus disease (disorder)" />
                            </valueCoding>
                        </extension>
                    </extension>
                    <condition>
                        <reference value="Condition/condition-eicr-eve-everywoman-zika" />
                    </condition>
                </diagnosis>
                <diagnosis>
                    <condition>
                        <reference value="Condition/condition-eicr-eve-everywoman-diabetes" />
                    </condition>
                </diagnosis>
                <location>
                    <location>
                        <reference value="Location/location-ecr-salem-medical-center" />
                        <display value="Clinic Bldg A, Salem Medical Center, 4646 Brown Rd, Salem, MA 02368" />
                    </location>
                </location>
                <serviceProvider>
                    <reference value="Organization/organization-ecr-salem-medical-center" />
                    <display value="Salem Medical Center, 22222 Health Authority Drive, Ann Arbor MI, 99999" />
                </serviceProvider>
            </Encounter>
        </resource>
    </entry>
    <entry>
        <fullUrl value="http://example.org/fhir/Observation/observation-pregnancy-status-eve-everywoman" />
        <resource>
            <Observation>
                <id value="observation-pregnancy-status-eve-everywoman" />
                <meta>
                    <versionId value="6" />
                    <lastUpdated value="2021-06-30T07:22:40.222+00:00" />
                    <source value="#WUV2SWqz3ej775gd" />
                    <profile value="http://hl7.org/fhir/us/ecr/StructureDefinition/us-ph-pregnancy-status-observation" />
                </meta>
                <text>
                    <status value="generated" />
                    <div xmlns="http://www.w3.org/1999/xhtml">
                        <p>Empty for testing</p>
                    </div>
                </text>
                <extension url="http://hl7.org/fhir/us/ecr/StructureDefinition/us-ph-date-recorded-extension">
                    <valueDateTime value="2017-10-01" />
                </extension>
                <extension url="http://hl7.org/fhir/us/ecr/StructureDefinition/us-ph-date-determined-extension">
                    <valueDateTime value="2017-10-01" />
                </extension>
                <status value="final" />
                <code>
                    <coding>
                        <system value="http://loinc.org" />
                        <code value="82810-3" />
                        <display value="Pregnancy Status" />
                    </coding>
                </code>
                <subject>
                    <reference value="Patient/patient-ecr-eve-everywoman" />
                    <display value="Eve Everywoman" />
                </subject>
                <effectivePeriod>
                    <start value="2017-08-26" />
                </effectivePeriod>
                <valueCodeableConcept>
                    <coding>
                        <system value="http://snomed.info/sct" />
                        <code value="77386006" />
                        <display value="Pregnant (finding)" />
                    </coding>
                </valueCodeableConcept>
                <method>
                    <coding>
                        <system value="http://snomed.info/sct" />
                        <code value="16310003" />
                        <display value="Diagnostic ultrasonography (procedure)" />
                    </coding>
                </method>
                <component>
                    <extension url="http://hl7.org/fhir/us/ecr/StructureDefinition/us-ph-date-determined-extension">
                        <valueDateTime value="2017-10-01" />
                    </extension>
                    <code>
                        <coding>
                            <system value="http://loinc.org" />
                            <code value="53691-2" />
                            <display value="Gestational age Estimated from patient reported estimated date of conception" />
                        </coding>
                    </code>
                    <valueQuantity>
                        <value value="143" />
                        <unit value="d" />
                    </valueQuantity>
                </component>
                <component>
                    <extension url="http://hl7.org/fhir/us/ecr/StructureDefinition/us-ph-date-determined-extension">
                        <valueDateTime value="2017-10-01" />
                    </extension>
                    <code>
                        <coding>
                            <system value="http://loinc.org" />
                            <code value="57064-8" />
                            <display value="Delivery date Estimated from date fundal height reaches umb" />
                        </coding>
                    </code>
                    <valueDateTime value="2018-05-01" />
                </component>
            </Observation>
        </resource>
    </entry>
    <entry>
        <fullUrl value="http://example.org/fhir/Observation/observation-odh-usual-work-eve-everywoman" />
        <resource>
            <Observation>
                <id value="observation-odh-usual-work-eve-everywoman" />
                <meta>
                    <versionId value="4" />
                    <lastUpdated value="2021-06-30T07:22:40.900+00:00" />
                    <source value="#WUV2SWqz3ej775gd" />
                    <profile value="http://hl7.org/fhir/us/odh/StructureDefinition/odh-UsualWork" />
                </meta>
                <text>
                    <status value="generated" />
                    <div xmlns="http://www.w3.org/1999/xhtml">
                        <p>Empty for testing</p>
                    </div>
                </text>
                <status value="final" />
                <code>
                    <coding>
                        <system value="http://loinc.org" />
                        <code value="21843-8" />
                        <display value="History of Usual occupation" />
                    </coding>
                </code>
                <subject>
                    <reference value="Patient/patient-ecr-eve-everywoman" />
                    <display value="Eve Everywoman" />
                </subject>
                <effectivePeriod>
                    <start value="2015-01-01" />
                    <end value="2018-03-07" />
                </effectivePeriod>
                <valueCodeableConcept>
                    <coding>
                        <system value="urn:oid:2.16.840.1.114222.4.5.314" />
                        <code value="0136" />
                        <display value="Human Resources Managers" />
                    </coding>
                </valueCodeableConcept>
                <component>
                    <code>
                        <coding>
                            <system value="http://loinc.org" />
                            <code value="21844-6" />
                            <display value="History of Usual industry" />
                        </coding>
                    </code>
                    <valueCodeableConcept>
                        <coding>
                            <system value="urn:oid:2.16.840.1.114222.4.5.315" />
                            <code value="8190" />
                            <display value="Hospitals" />
                        </coding>
                    </valueCodeableConcept>
                </component>
            </Observation>
        </resource>
    </entry>
    <entry>
        <fullUrl value="http://example.org/fhir/Observation/observation-us-ph-emergency-outbreak-info-eve-everywoman" />
        <resource>
            <Observation>
                <id value="observation-us-ph-emergency-outbreak-info-eve-everywoman" />
                <meta>
                    <versionId value="3" />
                    <lastUpdated value="2020-12-01T03:00:01.815+00:00" />
                    <source value="#h7tDHSJolNjwFZK0" />
                    <profile value="http://hl7.org/fhir/us/ecr/StructureDefinition/us-ph-emergency-outbreak-information" />
                </meta>
                <status value="final" />
                <code>
                    <text value="Employee desk distance from mail sorter" />
                </code>
                <subject>
                    <reference value="Patient/patient-ecr-eve-everywoman" />
                    <display value="Eve Everywoman" />
                </subject>
                <effectiveDateTime value="2020-11-18T22:33:22Z" />
                <valueQuantity>
                    <value value="2" />
                    <unit value="m" />
                </valueQuantity>
            </Observation>
        </resource>
    </entry>
    <entry>
        <fullUrl value="http://example.org/fhir/Patient/patient-ecr-eve-everywoman" />
        <resource>
            <Patient>
                <id value="patient-ecr-eve-everywoman" />
                <meta>
                    <versionId value="9" />
                    <lastUpdated value="2021-06-30T07:22:51.254+00:00" />
                    <source value="#WUV2SWqz3ej775gd" />
                    <profile value="http://hl7.org/fhir/us/ecr/StructureDefinition/us-ph-patient" />
                </meta>
                <text>
                    <status value="generated" />
                    <div xmlns="http://www.w3.org/1999/xhtml">
                        <p>Empty for testing</p>
                    </div>
                </text>
                <extension url="http://hl7.org/fhir/us/core/StructureDefinition/us-core-race">
                    <extension url="ombCategory">
                        <valueCoding>
                            <system value="urn:oid:2.16.840.1.113883.6.238" />
                            <code value="2106-3" />
                            <display value="White" />
                        </valueCoding>
                    </extension>
                    <extension url="text">
                        <valueString value="White" />
                    </extension>
                </extension>
                <extension url="http://hl7.org/fhir/us/core/StructureDefinition/us-core-ethnicity">
                    <extension url="ombCategory">
                        <valueCoding>
                            <system value="urn:oid:2.16.840.1.113883.6.238" />
                            <code value="2186-5" />
                            <display value="Not Hispanic or Latino" />
                        </valueCoding>
                    </extension>
                    <extension url="text">
                        <valueString value="Not Hispanic or Latino" />
                    </extension>
                </extension>
                <extension url="http://hl7.org/fhir/us/core/StructureDefinition/us-core-birthsex">
                    <valueCode value="F" />
                </extension>
                <extension url="http://hl7.org/fhir/StructureDefinition/patient-genderIdentity">
                    <valueCodeableConcept>
                        <coding>
                            <system value="http://hl7.org/fhir/gender-identity" />
                            <code value="female" />
                            <display value="female" />
                        </coding>
                    </valueCodeableConcept>
                </extension>
                <extension url="http://hl7.org/fhir/us/ecr/StructureDefinition/us-ph-tribal-affiliation-extension">
                    <extension url="TribeName">
                        <valueCoding>
                            <system value="http://terminology.hl7.org/CodeSystem/v3-TribalEntityUS" />
                            <code value="91" />
                            <display value="Fort Mojave Indian Tribe of Arizona, California" />
                        </valueCoding>
                    </extension>
                    <extension url="EnrolledTribeMember">
                        <valueBoolean value="true" />
                    </extension>
                </extension>
                <identifier>
                    <use value="usual" />
                    <type>
                        <coding>
                            <system value="http://terminology.hl7.org/CodeSystem/v2-0203" />
                            <code value="MR" />
                            <display value="Medical Record Number" />
                        </coding>
                    </type>
                    <system value="http://hospital.smarthealthit.org" />
                    <value value="1032702" />
                </identifier>
                <active value="true" />
                <name>
                    <family value="Everywoman" />
                    <given value="Eve" />
                    <given value="L" />
                </name>
                <telecom>
                    <system value="phone" />
                    <value value="1-(404)555-1212" />
                    <use value="home" />
                </telecom>
                <telecom>
                    <system value="email" />
                    <value value="eve.everywoman@example.com" />
                </telecom>
                <gender value="female" />
                <birthDate value="1974-11-24" />
                <address>
                    <line value="5101 Peachtree St NE" />
                    <city value="Atlanta" />
                    <state value="GA" />
                    <postalCode value="30302" />
                    <country value="US" />
                </address>
            </Patient>
        </resource>
    </entry>
    <entry>
        <fullUrl value="http://example.org/fhir/PractitionerRole/practitionerrole-henry-seven" />
        <resource>
            <PractitionerRole>
                <id value="practitionerrole-henry-seven" />
                <meta>
                    <versionId value="9" />
                    <lastUpdated value="2021-06-30T07:22:50.063+00:00" />
                    <source value="#WUV2SWqz3ej775gd" />
                    <profile value="http://hl7.org/fhir/us/ecr/StructureDefinition/us-ph-practitionerrole" />
                </meta>
                <text>
                    <status value="generated" />
                    <div xmlns="http://www.w3.org/1999/xhtml">
                        <p>Empty for testing</p>
                    </div>
                </text>
                <identifier>
                    <system value="http://hl7.org/fhir/sid/us-npi" />
                    <value value="9941339108" />
                </identifier>
                <practitioner>
                    <reference value="Practitioner/practitioner-us-core-henry-seven" />
                    <display value="Henry Seven, MD" />
                </practitioner>
                <organization>
                    <reference value="Organization/organization-ecr-salem-medical-center" />
                    <display value="Salem Medical Center" />
                </organization>
                <code>
                    <coding>
                        <system value="http://nucc.org/provider-taxonomy" />
                        <code value="261QP2300X" />
                        <display value="Primary Care Clinic/Center" />
                    </coding>
                </code>
                <specialty>
                    <coding>
                        <system value="http://snomed.info/sct" />
                        <code value="419772000" />
                        <display value="Family Practice" />
                    </coding>
                </specialty>
                <location>
                    <reference value="Location/location-ecr-salem-medical-center" />
                    <display value="Salem Medical Center" />
                </location>
                <telecom>
                    <system value="email" />
                    <value value="henry.seven@example.com" />
                </telecom>
            </PractitionerRole>
        </resource>
    </entry>
    <entry>
        <fullUrl value="http://example.org/fhir/Observation/observation-us-ph-exposure-contact-info-football-game" />
        <resource>
            <Observation>
                <id value="observation-us-ph-exposure-contact-info-football-game" />
                <meta>
                    <versionId value="4" />
                    <lastUpdated value="2020-12-01T07:17:32.073+00:00" />
                    <source value="#pMvWUdCWz4XOnrDf" />
                    <profile value="http://hl7.org/fhir/us/ecr/StructureDefinition/us-ph-exposure-contact-information" />
                </meta>
                <status value="final" />
                <category>
                    <coding>
                        <system value="http://terminology.hl7.org/CodeSystem/v3-ActClass" />
                        <code value="EXPOS" />
                        <display value="exposure" />
                    </coding>
                    <text value="An interaction between entities that provides opportunity for transmission of a physical, chemical, or biological agent from an exposure source entity to an exposure target entity." />
                </category>
                <code>
                    <coding>
                        <system value="http://terminology.hl7.org/CodeSystem/umls" />
                        <code value="C3841750" />
                        <display value="Mass gathering" />
                    </coding>
                    <text value="Mass gathering (football game)" />
                </code>
                <subject>
                    <reference value="Patient/patient-ecr-eve-everywoman" />
                    <display value="Eve Everywoman" />
                </subject>
                <focus>
                    <reference value="Location/location-ecr-city-football-stadium" />
                    <display value="City Football Stadium" />
                </focus>
                <effectivePeriod>
                    <start value="2020-01-11T18:00:00Z" />
                    <end value="2020-01-11T21:30:00Z" />
                </effectivePeriod>
                <valueCodeableConcept>
                    <coding>
                        <system value="http://snomed.info/sct" />
                        <code value="264379009" />
                        <display value="Sports stadium (environment)" />
                    </coding>
                    <text value="City Football Stadium" />
                </valueCodeableConcept>
            </Observation>
        </resource>
    </entry>
    <entry>
        <fullUrl value="http://example.org/fhir/Observation/observation-travel-history-eve-everywoman-201801" />
        <resource>
            <Observation>
                <id value="observation-travel-history-eve-everywoman-201801" />
                <meta>
                    <versionId value="5" />
                    <lastUpdated value="2021-06-30T07:22:39.792+00:00" />
                    <source value="#WUV2SWqz3ej775gd" />
                    <profile value="http://hl7.org/fhir/us/ecr/StructureDefinition/us-ph-travel-history" />
                </meta>
                <text>
                    <status value="generated" />
                    <div xmlns="http://www.w3.org/1999/xhtml">
                        <p>Empty for testing</p>
                    </div>
                </text>
                <status value="final" />
                <code>
                    <coding>
                        <system value="http://snomed.info/sct" />
                        <code value="420008001" />
                        <display value="Travel" />
                    </coding>
                    <text value="Travel History" />
                </code>
                <subject>
                    <reference value="Patient/patient-ecr-eve-everywoman" />
                    <display value="Eve Everywoman" />
                </subject>
                <effectivePeriod>
                    <start value="2018-01-15" />
                    <end value="2018-01-30" />
                </effectivePeriod>
                <component>
                    <code>
                        <coding>
                            <system value="http://terminology.hl7.org/CodeSystem/v3-ParticipationType" />
                            <code value="LOC" />
                            <display value="Location" />
                        </coding>
                    </code>
                    <valueCodeableConcept>
                        <!--<coding>
                            <system value="urn:iso:std:iso:3166" />
                            <code value="FJI" />
                            <display value="Fiji" />
                        </coding>-->
                        <text value="went to Fiji for a long time" />
                    </valueCodeableConcept>
                </component>
                <component>
                    <code>
                        <coding>
                            <system value="http://terminology.hl7.org/CodeSystem/v3-ParticipationType" />
                            <code value="LOC" />
                            <display value="Location" />
                        </coding>
                    </code>
                    <valueCodeableConcept>
                        <coding>
                            <system value="urn:oid:1.0.3166.1" />
                            <code value="VUT" />
                            <display value="Vanuatu" />
                        </coding>
                    </valueCodeableConcept>
                </component>
                <component>
                    <code>
                        <coding>
                            <system value="http://snomed.info/sct" />
                            <code value="280147009" />
                            <display value="Type of activity (attribute)" />
                        </coding>
                    </code>
                    <valueCodeableConcept>
                        <coding>
                            <system value="http://snomed.info/sct" />
                            <code value="702348006" />
                            <display value="Active duty military (occupation)" />
                        </coding>
                    </valueCodeableConcept>
                </component>
            </Observation>
        </resource>
    </entry>
    <entry>
        <fullUrl value="http://example.org/fhir/Observation/observation-travel-history-eve-everywoman-201610" />
        <resource>
            <Observation xmlns="http://hl7.org/fhir">
                <id value="observation-travel-history-eve-everywoman-201610" />
                <meta>
                    <versionId value="7" />
                    <lastUpdated value="2021-06-30T07:22:50.206+00:00" />
                    <source value="#WUV2SWqz3ej775gd" />
                    <profile value="http://hl7.org/fhir/us/ecr/StructureDefinition/us-ph-travel-history" />
                </meta>
                <status value="final" />
                <code>
                    <coding>
                        <system value="http://snomed.info/sct" />
                        <code value="420008001" />
                        <display value="Travel" />
                    </coding>
                    <text value="Travel History" />
                </code>
                <subject>
                    <reference value="Patient/patient-ecr-eve-everywoman" />
                    <display value="Eve Everywoman" />
                </subject>
                <effectivePeriod>
                    <start value="2016-10-22" />
                    <end value="2016-10-30" />
                </effectivePeriod>
                <component>
                    <extension url="http://hl7.org/fhir/us/ecr/StructureDefinition/us-ph-address-extension">
                        <valueAddress>
                            <line value="1170 N Rancho Robles Rd" />
                            <city value="Oracle" />
                            <state value="AZ" />
                            <postalCode value="8562" />
                            <country value="US" />
                        </valueAddress>
                    </extension>
                    <code>
                        <coding>
                            <system value="http://terminology.hl7.org/CodeSystem/v3-ParticipationType" />
                            <code value="LOC" />
                            <display value="Location" />
                        </coding>
                    </code>
                </component>
            </Observation>
        </resource>
    </entry>
    <entry>
        <fullUrl value="http://example.org/fhir/Observation/observation-disability-status-eve-everywoman" />
        <resource>
            <Observation>
                <id value="observation-disability-status-eve-everywoman" />
                <meta>
                    <versionId value="2" />
                    <lastUpdated value="2021-06-30T05:33:12.487+00:00" />
                    <source value="#AVCvf6gXu6hyNuWr" />
                    <profile value="http://hl7.org/fhir/us/ecr/StructureDefinition/us-ph-disability-status" />
                </meta>
                <status value="final" />
                <code>
                    <coding>
                        <system value="http://loinc.org" />
                        <code value="69856-3" />
                        <display value="Are you deaf, or do you have serious difficulty hearing [HHS.ACA Section 4302]" />
                    </coding>
                </code>
                <subject>
                    <reference value="Patient/patient-ecr-eve-everywoman" />
                    <display value="Eve Everywoman" />
                </subject>
                <effectiveDateTime value="2020-11-10T22:33:22Z" />
                <valueBoolean value="true" />
            </Observation>
        </resource>
    </entry>
    <entry>
        <fullUrl value="http://example.org/fhir/Observation/observation-us-core-results-eve-everywoman-lymphocytes" />
        <resource>
            <Observation>
                <id value="observation-us-core-results-eve-everywoman-lymphocytes" />
                <meta>
                    <versionId value="3" />
                    <lastUpdated value="2020-12-01T01:41:39.144+00:00" />
                    <source value="#fI08Yuhb2G5zlpiB" />
                    <profile value="http://hl7.org/fhir/us/core/StructureDefinition/us-core-observation-lab" />
                </meta>
                <status value="final" />
                <category>
                    <coding>
                        <system value="http://terminology.hl7.org/CodeSystem/observation-category" />
                        <code value="laboratory" />
                        <display value="Laboratory" />
                    </coding>
                    <text value="Laboratory" />
                </category>
                <code>
                    <coding>
                        <system value="http://loinc.org" />
                        <code value="731-0" />
                        <display value="Lymphocytes [#/volume] in Blood by Automated count" />
                    </coding>
                </code>
                <subject>
                    <reference value="Patient/patient-ecr-eve-everywoman" />
                    <display value="Eve Everywoman" />
                </subject>
                <effectiveDateTime value="2018-03-07" />
                <valueQuantity>
                    <value value="5.2" />
                    <system value="http://unitsofmeasure.org" />
                    <code value="10*3/uL" />
                </valueQuantity>
                <interpretation>
                    <coding>
                        <system value="http://terminology.hl7.org/CodeSystem/v3-ObservationInterpretation" />
                        <code value="H" />
                        <display value="High" />
                    </coding>
                </interpretation>
                <referenceRange>
                    <low>
                        <value value="1" />
                        <system value="http://unitsofmeasure.org" />
                        <code value="10*3/uL" />
                    </low>
                    <high>
                        <value value="4.8" />
                        <system value="http://unitsofmeasure.org" />
                        <code value="10*3/uL" />
                    </high>
                </referenceRange>
            </Observation>
        </resource>
    </entry>
    <entry>
        <fullUrl value="http://example.org/fhir/Organization/organization-ecr-acme-laboratory" />
        <resource>
            <Organization>
                <id value="organization-ecr-acme-laboratory" />
                <meta>
                    <versionId value="4" />
                    <lastUpdated value="2021-06-30T04:13:19.329+00:00" />
                    <source value="#xp7CXcY2lPaNsDQL" />
                    <profile value="http://hl7.org/fhir/us/ecr/StructureDefinition/us-ph-organization" />
                </meta>
                <identifier>
                    <system value="http://hl7.org.fhir/sid/us-npi" />
                    <value value="1144221999" />
                </identifier>
                <active value="true" />
                <type>
                    <coding>
                        <system value="http://terminology.hl7.org/CodeSystem/v3-RoleCode" />
                        <code value="OUTLAB" />
                        <display value="outpatient laboratory" />
                    </coding>
                </type>
                <name value="Acme_Labs" />
                <telecom>
                    <system value="phone" />
                    <value value="+1-555-555-4444" />
                </telecom>
                <telecom>
                    <system value="email" />
                    <value value="mail@acme-labs.com" />
                </telecom>
                <address>
                    <line value="7777 Laboratory Drive" />
                    <city value="Ann Arbor" />
                    <state value="MI" />
                    <postalCode value="99999" />
                </address>
            </Organization>
        </resource>
    </entry>
    <entry>
        <fullUrl value="http://example.org/fhir/Location/location-ecr-salem-medical-center" />
        <resource>
            <Location>
                <id value="location-ecr-salem-medical-center" />
                <meta>
                    <versionId value="5" />
                    <lastUpdated value="2021-06-30T07:22:54.780+00:00" />
                    <source value="#WUV2SWqz3ej775gd" />
                    <profile value="http://hl7.org/fhir/us/ecr/StructureDefinition/us-ph-location" />
                </meta>
                <text>
                    <status value="generated" />
                    <div xmlns="http://www.w3.org/1999/xhtml">
                        <p>Empty for testing</p>
                    </div>
                </text>
                <status value="active" />
                <name value="Clinic Bldg A, Salem Medical Center" />
                <type>
                    <coding>
                        <system value="http://terminology.hl7.org/CodeSystem/v3-RoleCode" />
                        <code value="HOSP" />
                        <display value="Hospital" />
                    </coding>
                </type>
                <telecom>
                    <system value="phone" />
                    <value value="(+1) (555)555-3001" />
                </telecom>
                <telecom>
                    <system value="fax" />
                    <value value="(+1) (555)555-3002" />
                </telecom>
                <telecom>
                    <system value="email" />
                    <value value="mail@smc.org" />
                </telecom>
                <address>
                    <line value="Clinic Bldg A" />
                    <line value="4444 Healthcare Drive" />
                    <city value="Ann Arbor" />
                    <state value="MI" />
                    <postalCode value="99999" />
                </address>
                <managingOrganization>
                    <reference value="Organization/organization-ecr-salem-medical-center" />
                </managingOrganization>
            </Location>
        </resource>
    </entry>
    <entry>
        <fullUrl value="http://example.org/fhir/Location/location-ecr-city-football-stadium" />
        <resource>
            <Location>
                <id value="location-ecr-city-football-stadium" />
                <meta>
                    <versionId value="1" />
                    <lastUpdated value="2020-12-01T01:55:32.705+00:00" />
                    <source value="#KLUFk4w6CXKqrFEC" />
                </meta>
                <status value="active" />
                <name value="City Football Stadium" />
                <address>
                    <line value="99 Football Stadium Road" />
                    <city value="My City" />
                    <state value="AZ" />
                    <postalCode value="8562" />
                </address>
            </Location>
        </resource>
    </entry>
    <entry>
        <fullUrl value="http://example.org/fhir/Immunization/immunization-ecr-pneumo" />
        <resource>
            <Immunization xmlns="http://hl7.org/fhir">
                <id value="immunization-ecr-pneumo" />
                <meta>
                    <versionId value="6" />
                    <lastUpdated value="2021-06-30T07:22:46.628+00:00" />
                    <source value="#WUV2SWqz3ej775gd" />
                    <profile value="http://hl7.org/fhir/us/core/StructureDefinition/us-core-immunization" />
                </meta>
                <text>
                    <status value="generated" />
                    <div xmlns="http://www.w3.org/1999/xhtml">
                        <table xmlns:xsl="http://www.w3.org/1999/XSL/Transform">
                            <tr>
                                <td style="font-weight: bold">id</td>
                                <td>
                                    <div title="id">immunization-ecr-pneumo</div>
                                </td>
                            </tr>
                            <tr>
                                <td style="font-weight: bold">meta</td>
                                <td>
                                    <table>
                                        <tr>
                                            <td style="font-weight: bold">versionId</td>
                                            <td>
                                                <div title="versionId">13</div>
                                            </td>
                                        </tr>
                                        <tr>
                                            <td style="font-weight: bold">lastUpdated</td>
                                            <td>
                                                <div title="lastUpdated">2019-10-23T20:24:40.000-04:00</div>
                                            </td>
                                        </tr>
                                        <tr>
                                            <td style="font-weight: bold">profile</td>
                                            <td>
                                                <div title="profile">http://hl7.org/fhir/us/core/StructureDefinition/us-core-immunization</div>
                                            </td>
                                        </tr>
                                    </table>
                                </td>
                            </tr>
                            <tr>
                                <td style="font-weight: bold">status</td>
                                <td>
                                    <div title="status">completed</div>
                                </td>
                            </tr>
                            <tr>
                                <td style="font-weight: bold">vaccineCode</td>
                                <td>
                                    <ul style="list-style:none; padding-left:0; margin:0 0;">
                                        <li>
                                            <ul style="list-style:none; padding-left:0; margin:0 0;">
                                                <li>
                                                    <div title="display">pneumococcal polysaccharide vaccine</div> ( <div title="code">33</div> ) </li>
                                                <li>
                                                    <div title="system">
                                                        <a href="http://hl7.org/fhir/sid/cvx">http://hl7.org/fhir/sid/cvx</a>
                                                    </div>
                                                </li>
                                            </ul>
                                        </li>
                                    </ul>
                                </td>
                            </tr>
                            <tr>
                                <td style="font-weight: bold">patient</td>
                                <td>
                                    <ul style="list-style:none; padding-left:0; margin:0 0;">
                                        <li />
                                        <li>
                                            <a href="Patient-patient-ecr-eve-everywoman.html">Eve Everywoman</a>
                                        </li>
                                    </ul>
                                </td>
                            </tr>
                            <tr>
                                <td style="font-weight: bold">occurrenceDateTime</td>
                                <td>
                                    <div title="occurrenceDateTime">2018-09-01</div>
                                </td>
                            </tr>
                            <tr>
                                <td style="font-weight: bold">primarySource</td>
                                <td>
                                    <div title="primarySource">true</div>
                                </td>
                            </tr>
                        </table>
                    </div>
                </text>
                <status value="completed" />
                <vaccineCode>
                    <coding>
                        <system value="http://hl7.org/fhir/sid/cvx" />
                        <code value="33" />
                        <display value="pneumococcal polysaccharide vaccine" />
                    </coding>
                </vaccineCode>
                <patient>
                    <reference value="Patient/patient-ecr-eve-everywoman" />
                    <display value="Eve Everywoman" />
                </patient>
                <occurrenceDateTime value="2018-09-01" />
                <primarySource value="true" />
            </Immunization>
        </resource>
    </entry>
    <entry>
        <fullUrl value="http://example.org/fhir/Organization/organization-ecr-salem-medical-center" />
        <resource>
            <Organization>
                <id value="organization-ecr-salem-medical-center" />
                <meta>
                    <versionId value="5" />
                    <lastUpdated value="2021-06-30T04:13:19.345+00:00" />
                    <source value="#xa4yJZjn68xVavoM" />
                    <profile value="http://hl7.org/fhir/us/ecr/StructureDefinition/us-ph-organization" />
                </meta>
                <identifier>
                    <system value="http://hl7.org.fhir/sid/us-npi" />
                    <value value="55555555" />
                </identifier>
                <active value="true" />
                <name value="Salem Medical Center" />
                <telecom>
                    <system value="phone" />
                    <value value="+1-555-555-1111" />
                </telecom>
                <telecom>
                    <system value="email" />
                    <value value="mail@salemmedicalcenter.com" />
                </telecom>
                <address>
                    <line value="22222 Health Authority Drive" />
                    <city value="Ann Arbor" />
                    <state value="MI" />
                    <postalCode value="99999" />
                </address>
            </Organization>
        </resource>
    </entry>
    <entry>
        <fullUrl value="http://example.org/fhir/Condition/condition-eicr-eve-everywoman-zika" />
        <resource>
            <Condition>
                <id value="condition-eicr-eve-everywoman-zika" />
                <meta>
                    <versionId value="4" />
                    <lastUpdated value="2021-06-30T07:22:36.539+00:00" />
                    <source value="#WUV2SWqz3ej775gd" />
                </meta>
                <text>
                    <status value="generated" />
                    <div xmlns="http://www.w3.org/1999/xhtml">
                        <p>Empty for testing</p>
                    </div>
                </text>
                <category>
                    <coding>
                        <system value="http://terminology.hl7.org/CodeSystem/condition-category" />
                        <code value="encounter-diagnosis" />
                        <display value="Encounter Diagnosis" />
                    </coding>
                </category>
                <code>
                    <coding>
                        <system value="http://snomed.info/sct" />
                        <code value="3928002" />
                        <display value="Zika virus disease (disorder)" />
                    </coding>
                </code>
                <subject>
                    <reference value="Patient/patient-ecr-eve-everywoman" />
                    <display value="Eve Everywoman" />
                </subject>
                <onsetDateTime value="2017-08-23" />
                <asserter>
                    <reference value="Practitioner/practitioner-us-core-henry-seven" />
                    <display value="Henry Seven, MD" />
                </asserter>
            </Condition>
        </resource>
    </entry>
    <entry>
        <fullUrl value="http://example.org/fhir/Practitioner/practitioner-us-core-henry-seven" />
        <resource>
            <Practitioner>
                <id value="practitioner-us-core-henry-seven" />
                <meta>
                    <versionId value="4" />
                    <lastUpdated value="2021-06-30T07:22:36.952+00:00" />
                    <source value="#WUV2SWqz3ej775gd" />
                    <profile value="http://hl7.org/fhir/us/core/StructureDefinition/us-core-practitioner" />
                </meta>
                <text>
                    <status value="generated" />
                    <div xmlns="http://www.w3.org/1999/xhtml">
                        <p>Empty for testing</p>
                    </div>
                </text>
                <identifier>
                    <system value="http://hl7.org/fhir/sid/us-npi" />
                    <value value="9941339108" />
                </identifier>
                <name>
                    <family value="Henry" />
                    <given value="Seven" />
                    <suffix value="M.D." />
                </name>
                <telecom>
                    <system value="email" />
                    <value value="henry.seven@example.com" />
                </telecom>
                <telecom>
                    <system value="email" />
                    <value value="second.email@example.com" />
                </telecom>
                <address>
                    <line value="BMass Doctors" />
                    <line value="2100 North Ave" />
                    <city value="Burlington" />
                    <state value="MA" />
                    <postalCode value="02368" />
                    <country value="US" />
                </address>
            </Practitioner>
        </resource>
    </entry>
    <entry>
        <fullUrl value="http://example.org/fhir/Procedure/us-ph-procedure-ecmo" />
        <resource>
            <Procedure>
                <id value="us-ph-procedure-ecmo" />
                <meta>
                    <versionId value="5" />
                    <lastUpdated value="2021-06-28T08:12:56.829+00:00" />
                    <source value="#A9FdbPgUT95j7Itd" />
                    <profile value="http://hl7.org/fhir/us/ecr/StructureDefinition/eicr-procedure" />
                </meta>
                <identifier>
                    <system value="urn:ietf:rfc:3986" />
                    <value value="urn:uuid:b2a737f2-2fdb-49c1-b097-dac173d07afd" />
                </identifier>
                <status value="completed" />
                <code>
                    <coding>
                        <system value="http://snomed.info/sct" />
                        <code value="233573008" />
                        <display value="Extracorporeal membrane oxygenation (procedure)" />
                    </coding>
                    <text value="Extracorporeal membrane oxygenation (procedure)" />
                </code>
                <subject>
                    <reference value="Patient/patient-ecr-eve-everywoman" />
                </subject>
                <performedPeriod>
                    <start value="2020-11-01T12:55:26-07:00" />
                    <end value="2020-11-01T13:25:26-07:00" />
                </performedPeriod>
                <focalDevice>
                    <manipulated>
                        <reference value="Device/device-ecmo" />
                    </manipulated>
                </focalDevice>
            </Procedure>
        </resource>
    </entry>
    <entry>
        <fullUrl value="http://example.org/fhir/Device/device-ecmo" />
        <resource>
            <Device>
                <id value="device-ecmo" />
                <meta>
                    <versionId value="3" />
                    <lastUpdated value="2021-06-30T07:22:44.658+00:00" />
                    <source value="#WUV2SWqz3ej775gd" />
                </meta>
                <!--<text>
                    <status value="generated" />
                    <div xmlns="http://www.w3.org/1999/xhtml">
                        <p>
                            <b>Manually Created Narrative</b>
                        </p>
                        <h3>UDI</h3>
                        <p>
                            <b>Device Identifier</b>: 99863313444317 </p>
                        <p>
                            <b>CarrierHRF</b>: (01)99863313444316(17)220101(10)M320(21)AC222 </p>
                        <p>
                            <b>EntryType</b>: rfid </p>
                        <p>
                            <b>Name</b>: ACME Extracorporeal membrane oxygenator </p>
                        <p>
                            <b>Type</b>: udi-label-name </p>
                        <p>
                            <b>status</b>: active </p>
                        <p>
                            <b>manufacturer</b>: ACME Biomedical </p>
                        <p>
                            <b>expirationDate</b>: 2024-01-01 </p>
                        <p>
                            <b>lotNumber</b>: M321 </p>
                        <p>
                            <b>serialNumber</b>: AC222 </p>
                        <p>
                            <b>modelNumber</b>: 4.0 </p>
                        <p>
                            <b>patient</b>: <a href="Patient-patient-ecr-eve-everywoman.html">Eve Everywoman. Generated Summary: Medical Record Number: 1032702 (USUAL); active; Eve L Everywoman ; Phone: 1-(404)555-1212,
                                eve.everywoman@example.com; gender: female; birthDate: 1974-11-24</a>
                        </p>
                    </div>
                </text>
                -->
                <udiCarrier>
                    <deviceIdentifier value="99863313444316" />
                    <carrierHRF value="(01)99863313444316(17)220101(10)M320(21)AC222" />
                    <entryType value="rfid" />
                </udiCarrier>
                <status value="active" />
                <manufacturer value="ACME Biomedical" />
                <expirationDate value="2022-01-01" />
                <lotNumber value="M320" />
                <serialNumber value="AC222" />
                <deviceName>
                    <name value="ACME Extracorporeal membrane oxygenator" />
                    <type value="udi-label-name" />
                </deviceName>
                <modelNumber value="4.0" />
                <type>
                    <coding>
                        <system value="http://snomed.info/sct" />
                        <code value="469244005" />
                        <display value="Extracorporeal membrane oxygenator (physical object)" />
                    </coding>
                    <text value="Extracorporeal membrane oxygenator (physical object)" />
                </type>
                <patient>
                    <reference value="Patient/patient-ecr-eve-everywoman" />
                    <display value="Eve Everywoman" />
                </patient>
            </Device>
        </resource>
    </entry>
</Bundle>
