<?xml version="1.0" encoding="UTF-8"?>
<Bundle xmlns="http://hl7.org/fhir">
    <id value="RR-FHIR-004_R2" />
    <identifier>
        <system value="urn:ietf:rfc:3986" />
        <value value="urn:uuid:74abf6de-be6e-4028-93d2-ecfd039502d7" />
    </identifier>
    <type value="collection" />
    <timestamp value="2017-11-14T12:15:00.000-07:00" />
    <entry>
        <fullUrl value="urn:uuid:f149fa87-4767-4da5-963d-25a5db5f37c6" />
        <resource>
            <Communication>
                <id value="RR-communication-d36e11" />
                <meta>
                    <profile value="http://hl7.org/fhir/us/ecr/StructureDefinition/rr-communication" />
                    <!--CDA templateId: urn:hl7ii:2.16.840.1.113883.10.20.15.2.1.2:2017-04-01-->
                </meta>
                <text>
                    <status value="generated" />
                    <div xmlns="http://www.w3.org/1999/xhtml" lang="en-US">
                        <table class="header_table" style="border: 1pt inset #00008b; line-height: 10pt; width: 100%;">
                            <tbody>
                                <tr>
                                    <td class="td_header_role_name" style="width: 20%; background-color: #3399ff; padding: 0.1cm 0.2cm; vertical-align: top; background-color: #ffffcc;">
                                        <span class="td_label">Document Id</span>
                                    </td>
                                    <td class="td_header_role_value"> 18218889-5d7d-47d4-b329-31bb1c28d3b3</td>
                                </tr>
                                <tr>
                                    <td class="td_header_role_name" style="width: 20%; background-color: #3399ff; padding: 0.1cm 0.2cm; vertical-align: top; background-color: #ffffcc;">
                                        <span class="td_label">Document Created:</span>
                                    </td>
                                    <td class="td_header_role_value">November 14, 2017, 12:15, MST </td>
                                </tr>
                            </tbody>
                        </table>
                        <table class="header_table" style="border: 1pt inset #00008b; line-height: 10pt; width: 100%;">
                            <tbody>
                                <!--Author-->
                                <tr>
                                    <td class="td_header_role_name" style="width: 20%; background-color: #3399ff; padding: 0.1cm 0.2cm; vertical-align: top; background-color: #ffffcc;">
                                        <span class="td_label">Author</span>
                                    </td>
                                    <td class="td_header_role_value">Registered Pharmacist, RPh, The Pharmacy Alliance Health Group</td>
                                </tr>
                                <tr>
                                    <td class="td_header_role_name" style="width: 20%; background-color: #3399ff; padding: 0.1cm 0.2cm; vertical-align: top; background-color: #ffffcc;">
                                        <span class="td_label">Contact info</span>
                                    </td>
                                    <td class="td_header_role_value">1004 Pharmacy Drive<br />Portland, OR 99123, US<br />Tel (Work Place): +1(555)555-1004<br />
                                    </td>
                                </tr>
                            </tbody>
                        </table>
                        <table class="header_table" style="border: 1pt inset #00008b; line-height: 10pt; width: 100%;">
                            <tbody>
                                <!--encompassingEncounter-->
                                <tr>
                                    <td class="td_header_role_name" style="width: 20%; background-color: #3399ff; padding: 0.1cm 0.2cm; vertical-align: top; background-color: #ffffcc;">
                                        <span class="td_label">Encounter Id</span>
                                    </td>
                                    <td class="td_header_role_value">9937012 2.16.840.1.113883.19</td>
                                </tr>
                                <tr>
                                    <td class="td_header_role_name" style="width: 20%; background-color: #3399ff; padding: 0.1cm 0.2cm; vertical-align: top; background-color: #ffffcc;">
                                        <span class="td_label">Encounter Type</span>
                                    </td>
                                    <td class="td_header_role_value">Office outpatient visit 15 minutes</td>
                                </tr>
                                <tr>
                                    <td class="td_header_role_name" style="width: 20%; background-color: #3399ff; padding: 0.1cm 0.2cm; vertical-align: top; background-color: #ffffcc;">
                                        <span class="td_label">Encounter Date</span>
                                    </td>
                                    <td class="td_header_role_value"> From November 14, 2017, 10:00, MST to November 14, 2017, 10:15, MST </td>
                                </tr>
                                <tr>
                                    <td class="td_header_role_name" style="width: 20%; background-color: #3399ff; padding: 0.1cm 0.2cm; vertical-align: top; background-color: #ffffcc;">
                                        <span class="td_label">Encounter Location</span>
                                    </td>
                                    <td class="td_header_role_value">Outpatient facility</td>
                                </tr>
                                <tr>
                                    <td class="td_header_role_name" style="width: 20%; background-color: #3399ff; padding: 0.1cm 0.2cm; vertical-align: top; background-color: #ffffcc;">
                                        <span class="td_label">Responsible party</span>
                                    </td>
                                    <td class="td_header_role_value">Dr. Henry Seven of Level Seven Healthcare, Inc.</td>
                                </tr>
                                <tr>
                                    <td class="td_header_role_name" style="width: 20%; background-color: #3399ff; padding: 0.1cm 0.2cm; vertical-align: top; background-color: #ffffcc;">
                                        <span class="td_label">Contact info</span>
                                    </td>
                                    <td class="td_header_role_value">1002 Healthcare Drive<br />City, State 99999, US<br />Tel (Work Place): +1-555-555-1002<br />Fax (Work Place): +1-555-955-1002<br />Mail (Work Place):
                                        henrysevenmd@email.net<br />
                                    </td>
                                </tr>
                            </tbody>
                        </table>
                        <table class="header_table" style="border: 1pt inset #00008b; line-height: 10pt; width: 100%;">
                            <tbody>
                                <!--informationRecipient-->
                                <tr>
                                    <td class="td_header_role_name" style="width: 20%; background-color: #3399ff; padding: 0.1cm 0.2cm; vertical-align: top; background-color: #ffffcc;">
                                        <span class="td_label">Information recipient:</span>
                                    </td>
                                    <td class="td_header_role_value">Dr. Henry Seven</td>
                                </tr>
                                <tr>
                                    <td class="td_header_role_name" style="width: 20%; background-color: #3399ff; padding: 0.1cm 0.2cm; vertical-align: top; background-color: #ffffcc;">
                                        <span class="td_label">Contact info</span>
                                    </td>
                                    <td class="td_header_role_value">1002 Healthcare Drive<br />City, State 99999, US<br />Tel (Work Place): +1-555-555-1002<br />Fax (Work Place): +1-555-955-1002<br />Mail (Work Place):
                                        henrysevenmd@email.net<br />
                                    </td>
                                </tr>
                            </tbody>
                        </table>
                        <table class="header_table" style="border: 1pt inset #00008b; line-height: 10pt; width: 100%;">
                            <tbody>
                                <tr>
                                    <td class="td_header_role_name" style="width: 20%; background-color: #3399ff; padding: 0.1cm 0.2cm; vertical-align: top; background-color: #ffffcc;">
                                        <span class="td_label">Document maintained by</span>
                                    </td>
                                    <td class="td_header_role_value">Custodian Level Seven Healthcare, Inc.</td>
                                </tr>
                                <tr>
                                    <td class="td_header_role_name" style="width: 20%; background-color: #3399ff; padding: 0.1cm 0.2cm; vertical-align: top; background-color: #ffffcc;">
                                        <span class="td_label">Contact info</span>
                                    </td>
                                    <td class="td_header_role_value">4444 Healthcare Custodian Drive<br />City, State 99999, US<br />Tel (Work Place): +1(555)555-3001<br />
                                    </td>
                                </tr>
                            </tbody>
                        </table>
                        <div>
                            <br />
                            <br />
                            <p>
                                <span class="Bold">Subject:</span>
                            </p>
                            <p>Public Health Reporting Communication: one or more conditions are reportable, or may be reportable, to public health.</p>
                        </div>
                        <div />
                        <div>
                            <p>
                                <span class="Bold">Summary:</span>
                            </p>
                            <p>Your organization electronically submitted an initial case report to determine if reporting to public health is needed for a patient. "Zika virus disease (disorder)" is reportable to "State
                                Department of Health". An initial case report was sent to "State Department of Health". Additional information may be required for this report.<br />
                                <br />
                            </p>
                            <p>
                                <span class="Bold">"Zika virus disease (disorder)" for "State Department of Health"</span>
                            </p>
                            <p>Reporting is required within "24 hours". Reporting to this Public Health Agency is based on "both patient home address and provider facility address". </p>
                            <ul>
                                <li>
                                    <p>Local mosquito-borne Zika virus transmission was reported in your area. Increased watchfulness for symptoms of Zika virus in your patients is warranted. (Immediate action
                                        requested)</p>
                                </li>
                                <li>
                                    <p>Additional information for the required reporting of Zika must be submitted to State Department of Health immediately. This additional information can be submitted here. (Link -
                                        Immediate action required)</p>
                                </li>
                                <li>
                                    <p>Zika has particular risks for pregnant women. Follow-up guidance for pregnant women and couples who are planning pregnancy. (Link - Immediate action requested)</p>
                                </li>
                                <li>
                                    <p>Further Laboratory testing for Zika may be needed. Guidance for additional testing and specimen collection (Link - Action requested)</p>
                                </li>
                                <li>
                                    <p>Forms for submitting further Zika laboratory testing (Link - Information only)</p>
                                </li>
                                <li>
                                    <p>Treatment guidance (Link - Information only)</p>
                                </li>
                                <li>
                                    <p>If you have additional questions regarding Zika or reporting, contact information for the State Department of Health is available here. (Link - Information Only)</p>
                                </li>
                            </ul>
                            <p>Additional Resources (Information only):</p>
                            <ul>
                                <li>
                                    <p>Control and prevention information for providers (Link)</p>
                                </li>
                                <li>
                                    <p>Detailed condition references (Link)</p>
                                </li>
                                <li>
                                    <p>Prevalence in State (Link)</p>
                                </li>
                                <li>
                                    <p>CDC webpage (Link)</p>
                                </li>
                                <li>
                                    <p>Patient information factsheet (Link)</p>
                                </li>
                                <li>
                                    <p>State Resident information (Link)</p>
                                </li>
                            </ul>
                        </div>
                    </div>
                </text>
                <extension url="http://hl7.org/fhir/us/ecr/StructureDefinition/rr-priority-extension">
                    <valueCodeableConcept>
                        <coding>
                            <system value="urn:oid:2.16.840.1.114222.4.5.274" />
                            <code value="RRVS14" />
                            <display value="Action required" />
                        </coding>
                    </valueCodeableConcept>
                </extension>
                <extension url="http://hl7.org/fhir/us/ecr/StructureDefinition/relates-to-extension">
                    <extension url="type">
                        <valueCode value="transforms" />
                    </extension>
                    <extension url="targetIdentifier">
                        <valueIdentifier>
                            <system value="urn:ietf:rfc:3986" />
                            <value value="urn:uuid:18218889-5d7d-47d4-b329-31bb1c28d3b3" />
                        </valueIdentifier>
                    </extension>
                    <extension url="setId">
                        <valueIdentifier>
                            <system value="urn:oid:2.16.840.1.113883.19.5.99999.20" />
                            <value value="STI789" />
                        </valueIdentifier>
                    </extension>
                    <extension url="versionNumber">
                        <valueString value="1" />
                    </extension>
                </extension>
                <identifier>
                    <system value="urn:ietf:rfc:3986" />
                    <value value="urn:uuid:20ca3340-4a63-4498-913c-9ecf3f1ae7ce" />
                </identifier>
                <identifier>
                    <system value="urn:ietf:rfc:3986" />
                    <value value="urn:uuid:20ca3340-4a63-4498-913c-9ecf3f1ae7ce" />
                </identifier>
                <status value="completed" />
                <category>
                    <coding>
                        <system value="http://loinc.org" />
                        <code value="88085-6" />
                        <display value="Reportability response report Document Public health" />
                    </coding>
                </category>
                <subject>
                    <reference value="urn:uuid:d21a3092-d6b4-470c-bd0a-92653561efba" />
                </subject>
                <topic>
                    <text value="Subject: Public Health Reporting Communication: one or more conditions are reportable, or may be reportable, to public health." />
                </topic>
                <encounter>
                    <reference value="urn:uuid:b0c0ae9a-bdb1-472b-a7ab-f49b4fbfd789" />
                </encounter>
                <sent value="2017-11-14T12:15:00.000-07:00" />
                <recipient>
                    <reference value="urn:uuid:a69ba592-d8c5-4b6b-b328-0991eca45e86" />
                </recipient>
                <sender>
                    <reference value="urn:uuid:ae94c264-3896-414c-b0cd-5cfaf086e34f" />
                </sender>
                <payload id="reportability-response-summary">
                    <contentString
                        value="Your organization electronically submitted an initial case report to determine if reporting to public health is needed for a patient. 'Zika virus disease (disorder)' is reportable to 'State&#xA;                Department of Health'. An initial case report was sent to 'State Department of Health'. Additional information may be required for this report."
                     />
                </payload>
                <payload id="eicr-information">
                    <extension id="eicr-processing-status" url="http://hl7.org/fhir/us/ecr/StructureDefinition/rr-eicr-processing-status-extension">
                        <extension url="eICRProcessingStatus">
                            <valueReference>
                                <reference value="urn:uuid:c52c05f8-25a9-429e-ac8b-b7a5a6e2217f" />
                            </valueReference>
                        </extension>
                        <extension url="eICRValidationOutput">
                            <valueString
                                value="&lt;html&gt;&lt;head&gt;&lt;title&gt; Results &lt;/title&gt;&lt;style type=&#34;text/css&#34; /&gt;&lt;/head&gt;&lt;body&gt;&lt;table&gt;&lt;thead&gt;&lt;tr&gt;&lt;th&gt;Severity&lt;/th&gt;&lt;th&gt;Description&lt;/th&gt;&lt;th&gt;File&lt;/th&gt;&lt;th&gt;Location&lt;/th&gt;&lt;/tr&gt;&lt;/thead&gt;&lt;tbody&gt;&lt;tr&gt;&lt;td&gt;error&lt;/td&gt;&lt;td&gt;SHOULD contain zero or one [0..1] setId (CONF:1098-32752).&lt;/td&gt;&lt;td&gt;C:\Users\user1\Documents\Work\Lantana\SVN\ClientProjects\ReportabilityResponse\xml\samples\CDAR2_IG_PHCR_R2_RR_D1_2017AUG_SAMPLE.xml&lt;/td&gt;&lt;td&gt;&lt;p&gt;Start line 415:70&lt;/p&gt;&lt;/td&gt;&lt;/tr&gt;&lt;tr&gt;&lt;td&gt;error&lt;/td&gt;&lt;td&gt;SHOULD contain zero or one [0..1] versionNumber (CONF:1098-32753).&lt;/td&gt;&lt;td&gt;C:\Users\user1\Documents\Work\Lantana\SVN\ClientProjects\ReportabilityResponse\xml\samples\CDAR2_IG_PHCR_R2_RR_D1_2017AUG_SAMPLE.xml&lt;/td&gt;&lt;td&gt;&lt;p&gt;Start line 415:70&lt;/p&gt;&lt;/td&gt;&lt;/tr&gt;&lt;/tbody&gt;&lt;/table&gt;&lt;/body&gt;&lt;/html&gt;"
                             />
                        </extension>
                    </extension>
                    <extension url="http://hl7.org/fhir/us/ecr/StructureDefinition/eicr-initiation-type-extension">
                        <valueCodeableConcept>
                            <coding>
                                <system value="urn:oid:2.16.840.1.114222.4.5.274" />
                                <code value="PHC1464" />
                                <display value="Manually Initiated eICR" />
                            </coding>
                        </valueCodeableConcept>
                    </extension>
                    <extension url="http://hl7.org/fhir/us/ecr/StructureDefinition/rr-eicr-receipt-time-extension">
                        <valueDateTime value="2017-11-14T11:15:00.000-07:00" />
                    </extension>
                    <contentReference>
                        <identifier>
                            <system value="urn:ietf:rfc:3986" />
                            <value value="urn:uuid:ca316e79-aaf2-4e8c-aa5f-848093bb8bb1" />
                        </identifier>
                        <display value="eICR_Filename.xml" />
                    </contentReference>
                </payload>
                <payload id="relevant-reportable-condition">
                    <contentReference>
                        <reference value="urn:uuid:c1e4dcaa-6314-4fcd-b636-a64b69ed11ac" />
                    </contentReference>
                </payload>
            </Communication>
        </resource>
    </entry>
    <entry>
        <fullUrl value="urn:uuid:d21a3092-d6b4-470c-bd0a-92653561efba" />
        <resource>
            <Patient>
                <meta>
                    <profile value="http://hl7.org/fhir/us/ecr/StructureDefinition/ecr-patient" />
                    <!--CDA participant: ClinicalDocument[templateId/@root='2.16.840.1.113883.10.20.15.2.1.2']/recordTarget-->
                </meta>
                <text>
                    <status value="generated" />
                    <div xmlns="http://www.w3.org/1999/xhtml">
                        <h1>Everywoman, Eve</h1>
                        <p>Telecom: tel:+1-555-555-2003</p>
                        <p>Address: 2222 Home Street<br />City<br />State<br />99999<br />County<br />US</p>
                        <p>Gender: F</p>
                        <p>Birthdate: 1990-04-20</p>
                        <p>Language: pt</p>
                    </div>
                </text>
                <extension url="http://hl7.org/fhir/us/core/StructureDefinition/us-core-race">
                    <extension url="ombCategory">
                        <valueCoding>
                            <system value="urn:oid:2.16.840.1.113883.6.238" />
                            <code value="2106-3" />
                            <display value="White" />
                        </valueCoding>
                    </extension>
                    <extension url="text">
                        <valueString value="White" />
                    </extension>
                </extension>
                <extension url="http://hl7.org/fhir/us/core/StructureDefinition/us-core-ethnicity">
                    <extension url="ombCategory">
                        <valueCoding>
                            <system value="urn:oid:2.16.840.1.113883.6.238" />
                            <code value="2135-2" />
                            <display value="Hispanic or Latino" />
                        </valueCoding>
                    </extension>
                    <extension url="text">
                        <valueString value="Hispanic or Latino" />
                    </extension>
                </extension>
                <identifier>
                    <system value="urn:oid:2.16.840.1.113883.19.5" />
                    <value value="123453" />
                </identifier>
                <identifier>
                    <system value="http://hl7.org/fhir/sid/us-ssn" />
                    <value value="111-00-1234" />
                </identifier>
                <name>
                    <use value="usual" />
                    <text value="Everywoman, Eve (usual name)" />
                    <family value="Everywoman" />
                    <given value="Eve" />
                </name>
                <telecom>
                    <system value="phone" />
                    <value value="+1-555-555-2003" />
                    <use value="home" />
                </telecom>
                <gender value="female" />
                <birthDate value="1990-04-20" />
                <deceasedBoolean value="false" />
                <address>
                    <use value="home" />
                    <line value="2222 Home Street" />
                    <city value="City" />
                    <district value="County" />
                    <state value="State" />
                    <postalCode value="99999" />
                    <country value="US" />
                </address>
                <communication>
                    <language>
                        <coding>
                            <system value="urn:ietf:bcp:47" />
                            <code value="pt" />
                        </coding>
                    </language>
                    <preferred value="true" />
                </communication>
            </Patient>
        </resource>
    </entry>
    <entry>
        <fullUrl value="urn:uuid:b0c0ae9a-bdb1-472b-a7ab-f49b4fbfd789" />
        <resource>
            <Encounter>
                <!--No profiles found for any of the following templates: -->
                <identifier>
                    <system value="urn:oid:2.16.840.1.113883.19" />
                    <value value="9937012" />
                </identifier>
                <status value="finished" />
                <class>
                    <system value="http://terminology.hl7.org/CodeSystem/v3-ActCode" />
                    <code value="AMB" />
                </class>
                <type>
                    <coding>
                        <system value="http://www.ama-assn.org/go/cpt" />
                        <code value="99213" />
                        <display value="Office outpatient visit 15 minutes" />
                    </coding>
                    <coding>
                        <system value="http://terminology.hl7.org/CodeSystem/v3-ActCode" />
                        <code value="AMB" />
                        <display value="Ambulatory" />
                    </coding>
                </type>
                <subject>
                    <reference value="urn:uuid:d21a3092-d6b4-470c-bd0a-92653561efba" />
                </subject>
                <participant>
                    <individual>
                        <reference value="urn:uuid:5027f569-09f8-4b7d-ae02-8ed1d92c6612" />
                    </individual>
                </participant>
                <period>
                    <start value="2017-11-14T10:00:00.000-07:00" />
                    <end value="2017-11-14T10:15:00.000-07:00" />
                </period>
                <location>
                    <location>
                        <reference value="urn:uuid:7cda4fa3-e922-440e-a99c-ebe2b15e4606" />
                    </location>
                </location>
                <serviceProvider>
                    <reference value="urn:uuid:83c3c27b-3fd8-4576-861e-b55870d2a6d7" />
                </serviceProvider>
            </Encounter>
        </resource>
    </entry>
    <entry>
        <fullUrl value="urn:uuid:5027f569-09f8-4b7d-ae02-8ed1d92c6612" />
        <resource>
            <PractitionerRole>
                <!--responsibleParty/assignedEntity-->
                <identifier>
                    <system value="http://hl7.org/fhir/sid/us-npi" />
                    <value value="6666666666666" />
                </identifier>
                <practitioner>
                    <reference value="urn:uuid:805a440f-a118-4f74-bbeb-e7ee5804ee2d" />
                </practitioner>
                <organization>
                    <reference value="urn:uuid:78d7efef-c132-46ef-9652-9b787b8c3909" />
                </organization>
                <telecom>
                    <system value="phone" />
                    <value value="+1-555-555-1002" />
                    <use value="work" />
                </telecom>
                <telecom>
                    <system value="fax" />
                    <value value="+1-555-955-1002" />
                    <use value="work" />
                </telecom>
                <telecom>
                    <system value="email" />
                    <value value="henrysevenmd@email.net" />
                    <use value="work" />
                </telecom>
            </PractitionerRole>
        </resource>
    </entry>
    <entry>
        <fullUrl value="urn:uuid:805a440f-a118-4f74-bbeb-e7ee5804ee2d" />
        <resource>
            <Practitioner>
                <!--assignedEntity[cda:id[@root="2.16.840.1.113883.4.6"]]/assignedPerson-->
                <meta>
                    <profile value="http://hl7.org/fhir/us/core/StructureDefinition/us-core-practitioner" />
                </meta>
                <text>
                    <status value="generated" />
                    <div xmlns="http://www.w3.org/1999/xhtml">
                        <p>Name: Seven, Henry</p>
                        <p>---TODO: ID info---</p>
                        <p>Telephone: tel:+1-555-555-1002 fax:+1-555-955-1002 mailto:henrysevenmd@email.net</p>
                    </div>
                </text>
                <identifier>
                    <system value="http://hl7.org/fhir/sid/us-npi" />
                    <value value="6666666666666" />
                </identifier>
                <name>
                    <text value="Seven, Dr. Henry" />
                    <family value="Seven" />
                    <given value="Henry" />
                    <prefix value="Dr." />
                </name>
                <telecom>
                    <system value="phone" />
                    <value value="+1-555-555-1002" />
                    <use value="work" />
                </telecom>
                <telecom>
                    <system value="fax" />
                    <value value="+1-555-955-1002" />
                    <use value="work" />
                </telecom>
                <telecom>
                    <system value="email" />
                    <value value="henrysevenmd@email.net" />
                    <use value="work" />
                </telecom>
                <address>
                    <line value="1002 Healthcare Drive" />
                    <city value="City" />
                    <state value="State" />
                    <postalCode value="99999" />
                    <country value="US" />
                </address>
            </Practitioner>
        </resource>
    </entry>
    <entry>
        <fullUrl value="urn:uuid:78d7efef-c132-46ef-9652-9b787b8c3909" />
        <resource>
            <Organization>
                <identifier>
                    <system value="urn:ietf:rfc:3986" />
                    <value value="urn:uuid:78d7efef-c132-46ef-9652-9b787b8c3909" />
                </identifier>
                <active value="true" />
                <name value="Level Seven Healthcare, Inc." />
                <telecom>
                    <system value="phone" />
                    <value value="+1-555-555-1002" />
                    <use value="work" />
                </telecom>
                <telecom>
                    <system value="fax" />
                    <value value="+1-555-955-1002" />
                    <use value="work" />
                </telecom>
                <telecom>
                    <system value="email" />
                    <value value="henrysevenmd@email.net" />
                    <use value="work" />
                </telecom>
                <address>
                    <line value="4444 Healthcare Drive" />
                    <city value="City" />
                    <state value="State" />
                    <postalCode value="99999" />
                    <country value="US" />
                </address>
            </Organization>
        </resource>
    </entry>
    <entry>
        <fullUrl value="urn:uuid:7cda4fa3-e922-440e-a99c-ebe2b15e4606" />
        <resource>
            <Location>
                <identifier>
                    <system value="http://hl7.org/fhir/sid/us-npi" />
                    <value value="77777777777" />
                </identifier>
                <name value="Level Seven Healthcare, Inc." />
                <type>
                    <coding>
                        <system value="http://terminology.hl7.org/CodeSystem/v3-RoleCode" />
                        <code value="OF" />
                        <display value="Outpatient facility" />
                    </coding>
                </type>
                <telecom>
                    <system value="phone" />
                    <value value="+1(555)555-3001" />
                    <use value="work" />
                </telecom>
                <address>
                    <line value="Clinic Bldg A, 4444 Healthcare Drive" />
                    <city value="City" />
                    <state value="State" />
                    <postalCode value="99999" />
                    <country value="US" />
                </address>
            </Location>
        </resource>
    </entry>
    <entry>
        <fullUrl value="urn:uuid:83c3c27b-3fd8-4576-861e-b55870d2a6d7" />
        <resource>
            <Organization>
                <identifier>
                    <system value="urn:ietf:rfc:3986" />
                    <value value="urn:uuid:83c3c27b-3fd8-4576-861e-b55870d2a6d7" />
                </identifier>
                <active value="true" />
                <name value="Level Seven Healthcare, Inc." />
                <telecom>
                    <system value="phone" />
                    <value value="+1(555)555-3001" />
                    <use value="work" />
                </telecom>
            </Organization>
        </resource>
    </entry>
    <entry>
        <fullUrl value="urn:uuid:ae94c264-3896-414c-b0cd-5cfaf086e34f" />
        <resource>
            <PractitionerRole>
                <!--author/assignedAuthor-->
                <identifier>
                    <system value="urn:ietf:rfc:3986" />
                    <value value="urn:uuid:ec399842-7c0d-4cfc-ada3-f11a799d0460" />
                </identifier>
                <practitioner>
                    <reference value="urn:uuid:7c44710b-1a6f-41d0-80df-f4d684a3f9ce" />
                </practitioner>
                <organization>
                    <reference value="urn:uuid:2ad34a37-1279-4ba7-a214-430a563c672e" />
                </organization>
                <code>
                    <coding>
                        <system value="http://nucc.org/provider-taxonomy" />
                        <code value="183500000X" />
                        <display value="Pharmacist" />
                    </coding>
                </code>
                <telecom>
                    <system value="phone" />
                    <value value="+1(555)555-1004" />
                    <use value="work" />
                </telecom>
            </PractitionerRole>
        </resource>
    </entry>
    <entry>
        <fullUrl value="urn:uuid:7c44710b-1a6f-41d0-80df-f4d684a3f9ce" />
        <resource>
            <Practitioner>
                <!--assignedAuthor[cda:id[@root="ec399842-7c0d-4cfc-ada3-f11a799d0460"]]/assignedPerson-->
                <meta>
                    <profile value="http://hl7.org/fhir/us/core/StructureDefinition/us-core-practitioner" />
                </meta>
                <text>
                    <status value="generated" />
                    <div xmlns="http://www.w3.org/1999/xhtml">
                        <p>Name: Pharmacist, Registered</p>
                        <p>---TODO: ID info---</p>
                        <p>Telephone: tel:+1(555)555-1004</p>
                    </div>
                </text>
                <identifier>
                    <system value="urn:ietf:rfc:3986" />
                    <value value="urn:uuid:ec399842-7c0d-4cfc-ada3-f11a799d0460" />
                </identifier>
                <name>
                    <text value="Pharmacist, RPh, Registered" />
                    <family value="Pharmacist" />
                    <given value="Registered" />
                    <suffix value="RPh" />
                </name>
                <telecom>
                    <system value="phone" />
                    <value value="+1(555)555-1004" />
                    <use value="work" />
                </telecom>
                <address>
                    <line value="1004 Pharmacy Drive" />
                    <city value="Portland" />
                    <state value="OR" />
                    <postalCode value="99123" />
                    <country value="US" />
                </address>
            </Practitioner>
        </resource>
    </entry>
    <entry>
        <fullUrl value="urn:uuid:2ad34a37-1279-4ba7-a214-430a563c672e" />
        <resource>
            <Organization>
                <identifier>
                    <system value="urn:ietf:rfc:3986" />
                    <value value="urn:oid:2.16.840.1.113883.19.5" />
                </identifier>
                <active value="true" />
                <name value="The Pharmacy Alliance Health Group" />
                <telecom>
                    <system value="phone" />
                    <value value="+1(555)555-1004" />
                    <use value="work" />
                </telecom>
                <address>
                    <line value="1004 Pharmacy Drive" />
                    <city value="Portland" />
                    <state value="OR" />
                    <postalCode value="99123" />
                    <country value="US" />
                </address>
            </Organization>
        </resource>
    </entry>
    <entry>
        <fullUrl value="urn:uuid:e2ff3faa-9a54-4503-a760-d17bee916aef" />
        <resource>
            <Organization>
                <identifier>
                    <system value="http://hl7.org/fhir/sid/us-npi" />
                    <value value="88888888" />
                </identifier>
                <active value="true" />
                <name value="Custodian Level Seven Healthcare, Inc." />
                <telecom>
                    <system value="phone" />
                    <value value="+1(555)555-3001" />
                    <use value="work" />
                </telecom>
                <address>
                    <line value="4444 Healthcare Custodian Drive" />
                    <city value="City" />
                    <state value="State" />
                    <postalCode value="99999" />
                    <country value="US" />
                </address>
            </Organization>
        </resource>
    </entry>
    <entry>
        <fullUrl value="urn:uuid:a69ba592-d8c5-4b6b-b328-0991eca45e86" />
        <resource>
            <PractitionerRole>
                <!--informationRecipient/intendedRecipient-->
                <identifier>
                    <system value="http://hl7.org/fhir/sid/us-npi" />
                    <value value="6666666666666" />
                </identifier>
                <practitioner>
                    <reference value="urn:uuid:fb788a8f-ac9d-40c2-9d9a-b84aa1230dad" />
                </practitioner>
                <organization>
                    <reference value="urn:uuid:aaba9d55-7450-44bf-bf5c-d0d945321d68" />
                </organization>
                <telecom>
                    <system value="phone" />
                    <value value="+1-555-555-1002" />
                    <use value="work" />
                </telecom>
                <telecom>
                    <system value="fax" />
                    <value value="+1-555-955-1002" />
                    <use value="work" />
                </telecom>
                <telecom>
                    <system value="email" />
                    <value value="henrysevenmd@email.net" />
                    <use value="work" />
                </telecom>
            </PractitionerRole>
        </resource>
    </entry>
    <entry>
        <fullUrl value="urn:uuid:fb788a8f-ac9d-40c2-9d9a-b84aa1230dad" />
        <resource>
            <Practitioner>
                <!--intendedRecipient[cda:id[@root="2.16.840.1.113883.4.6"]]/informationRecipient-->
                <meta>
                    <profile value="http://hl7.org/fhir/us/core/StructureDefinition/us-core-practitioner" />
                </meta>
                <text>
                    <status value="generated" />
                    <div xmlns="http://www.w3.org/1999/xhtml">
                        <p>Name: Seven, Henry</p>
                        <p>---TODO: ID info---</p>
                        <p>Telephone: tel:+1-555-555-1002 fax:+1-555-955-1002 mailto:henrysevenmd@email.net</p>
                    </div>
                </text>
                <identifier>
                    <system value="http://hl7.org/fhir/sid/us-npi" />
                    <value value="6666666666666" />
                </identifier>
                <name>
                    <text value="Seven, Dr. Henry" />
                    <family value="Seven" />
                    <given value="Henry" />
                    <prefix value="Dr." />
                </name>
                <telecom>
                    <system value="phone" />
                    <value value="+1-555-555-1002" />
                    <use value="work" />
                </telecom>
                <telecom>
                    <system value="fax" />
                    <value value="+1-555-955-1002" />
                    <use value="work" />
                </telecom>
                <telecom>
                    <system value="email" />
                    <value value="henrysevenmd@email.net" />
                    <use value="work" />
                </telecom>
                <address>
                    <line value="1002 Healthcare Drive" />
                    <city value="City" />
                    <state value="State" />
                    <postalCode value="99999" />
                    <country value="US" />
                </address>
            </Practitioner>
        </resource>
    </entry>
    <entry>
        <fullUrl value="urn:uuid:aaba9d55-7450-44bf-bf5c-d0d945321d68" />
        <resource>
            <Organization>
                <identifier>
                    <system value="urn:ietf:rfc:3986" />
                    <value value="urn:uuid:aaba9d55-7450-44bf-bf5c-d0d945321d68" />
                </identifier>
                <active value="true" />
                <name value="Level Seven Healthcare, Inc." />
                <telecom>
                    <system value="phone" />
                    <value value="+1-555-555-1002" />
                    <use value="work" />
                </telecom>
                <telecom>
                    <system value="fax" />
                    <value value="+1-555-955-1002" />
                    <use value="work" />
                </telecom>
                <telecom>
                    <system value="email" />
                    <value value="henrysevenmd@email.net" />
                    <use value="work" />
                </telecom>
                <address>
                    <line value="4444 Healthcare Drive" />
                    <city value="City" />
                    <state value="State" />
                    <postalCode value="99999" />
                    <country value="US" />
                </address>
            </Organization>
        </resource>
    </entry>
    <entry xmlns:lcg="http://www.lantanagroup.com">
        <fullUrl value="urn:uuid:f356af21-e7c8-433a-8db7-d8dadfc19f96" />
        <resource>
            <DocumentReference>
                <masterIdentifier>
                    <system value="urn:ietf:rfc:3986" />
                    <value value="urn:uuid:ca316e79-aaf2-4e8c-aa5f-848093bb8bb1" />
                </masterIdentifier>
                <identifier>
                    <system value="urn:uuid:2.16.840.1.113883.19.5.99999.19" />
                    <value value="sTT988#1" />
                </identifier>
                <status value="current" />
                <type>
                    <coding>
                        <system value="http://loinc.org" />
                        <code value="55751-2" />
                        <display value="Public health Case report" />
                    </coding>
                </type>
                <content>
                    <attachment>
                        <url value="urn:oid:2.16.840.1.113883.19.5.99999.19" />
                    </attachment>
                </content>
            </DocumentReference>
        </resource>
    </entry>
    <entry>
        <fullUrl value="urn:uuid:44116a2a-da53-4c5f-884e-4deea4e61a32" />
        <resource>
            <Observation>
                <!--Processing Status Reason-->
                <meta>
                    <profile value="http://hl7.org/fhir/us/ecr/StructureDefinition/rr-eicr-processing-status-reason-observation" />
                    <!--CDA templateId: urn:hl7ii:2.16.840.1.113883.10.20.15.2.3.21:2017-04-01-->
                </meta>
                <identifier>
                    <system value="urn:ietf:rfc:3986" />
                    <value value="urn:uuid:e39d6ae2-8c6e-4638-9b33-412996586f42" />
                </identifier>
                <status value="final" />
                <code>
                    <coding>
                        <system value="urn:oid:2.16.840.1.114222.4.5.232" />
                        <code value="RR6" />
                        <display value="eICR Processing Status Reason" />
                    </coding>
                </code>
                <valueCodeableConcept>
                    <coding>
                        <system value="urn:oid:2.16.840.1.114222.4.5.274" />
                        <code value="RRVS29" />
                        <display value="eICR was processed with the warning of: outdated RCTC version" />
                    </coding>
                </valueCodeableConcept>
                <component>
                    <code>
                        <coding>
                            <system value="urn:oid:2.16.840.1.114222.4.5.274" />
                            <code value="RRVS31" />
                            <display value="Outdated RCTC Version Detail" />
                        </coding>
                    </code>
                    <valueString value="19/05/2016" />
                </component>
                <component>
                    <code>
                        <coding>
                            <system value="urn:oid:2.16.840.1.114222.4.5.274" />
                            <code value="RRVS33" />
                            <display value="Expected RCTC Version Detail" />
                        </coding>
                    </code>
                    <valueString value="13/10/2017" />
                </component>
            </Observation>
        </resource>
    </entry>
    <entry>
        <fullUrl value="urn:uuid:c52c05f8-25a9-429e-ac8b-b7a5a6e2217f" />
        <resource>
            <Observation>
                <!--Processing Status-->
                <meta>
                    <profile value="http://hl7.org/fhir/us/ecr/StructureDefinition/rr-eicr-processing-status-observation" />
                    <!--CDA templateId: urn:hl7ii:2.16.840.1.113883.10.20.15.2.3.29:2017-04-01-->
                </meta>
                <status value="final" />
                <code>
                    <coding>
                        <system value="urn:oid:2.16.840.1.114222.4.5.274" />
                        <code value="RRVS20" />
                        <display value="eICR was processed - with a warning" />
                    </coding>
                </code>
                <hasMember>
                    <reference value="urn:uuid:44116a2a-da53-4c5f-884e-4deea4e61a32" />
                </hasMember>
            </Observation>
        </resource>
    </entry>
    <entry>
        <fullUrl value="urn:uuid:c1e4dcaa-6314-4fcd-b636-a64b69ed11ac" />
        <resource>
            <PlanDefinition>
                <id value="RR-plandefinition-d36e567" />
                <meta>
                    <profile value="http://hl7.org/fhir/us/ecr/StructureDefinition/rr-relevant-reportable-condition-plandefinition" />
                    <!--CDA templateId: urn:hl7ii:2.16.840.1.113883.10.20.15.2.3.13:2017-04-01-->
                </meta>
                <extension url="http://hl7.org/fhir/us/ecr/StructureDefinition/rr-determination-of-reportability-extension">
                    <valueCodeableConcept>
                        <coding>
                            <system value="urn:oid:2.16.840.1.114222.4.5.274" />
                            <code value="RRVS1" />
                            <display value="Reportable" />
                        </coding>
                    </valueCodeableConcept>
                </extension>
                <extension url="http://hl7.org/fhir/us/ecr/StructureDefinition/rr-determination-of-reportability-reason-extension">
                    <valueString value="Reason for determination of reportability" />
                </extension>
                <extension url="http://hl7.org/fhir/us/ecr/StructureDefinition/rr-determination-of-reportability-rule-extension">
                    <valueString value="Rule used in reportability determination" />
                </extension>
                <url value="RR-plandefinition-d36e567" />
                <status value="active" />
                <publisher>
                    <extension url="http://hl7.org/fhir/us/ecr/StructureDefinition/rr-rules-authoring-agency-organization-extension">
                        <valueReference>
                            <reference value="urn:uuid:c703bf12-8c45-471b-983f-7142b5a442d5" />
                        </valueReference>
                    </extension>
                </publisher>
                <jurisdiction>
                    <extension url="http://hl7.org/fhir/us/ecr/StructureDefinition/rr-location-relevance-extension">
                        <valueCodeableConcept>
                            <coding>
                                <system value="urn:oid:2.16.840.1.114222.4.5.274" />
                                <code value="RRVS7" />
                                <display value="Both patient home address and provider facility address" />
                            </coding>
                        </valueCodeableConcept>
                    </extension>
                    <extension url="http://hl7.org/fhir/us/ecr/StructureDefinition/rr-routing-entity-organization-extension">
                        <valueReference>
                            <reference value="urn:uuid:72a2f366-9aee-4b41-bc03-0588383a0d1c" />
                        </valueReference>
                    </extension>
                    <extension url="http://hl7.org/fhir/us/ecr/StructureDefinition/rr-responsible-agency-organization-extension">
                        <valueReference>
                            <reference value="urn:uuid:1048f1b7-eba8-47ec-a7ff-2fba3f14c86c" />
                        </valueReference>
                    </extension>
                    <coding>
                        <system value="urn:iso:std:iso:3166" />
                        <code value="US" />
                        <display value="United States of America" />
                    </coding>
                </jurisdiction>
                <goal>
                    <description>
                        <text value="Reportability Feedback" />
                    </description>
                    <addresses>
                        <coding>
                            <system value="http://snomed.info/sct" />
                            <code value="3928002" />
                            <display value="Zika virus disease (disorder)" />
                        </coding>
                    </addresses>
                </goal>
                <action>
                    <documentation>
                        <extension url="http://hl7.org/fhir/us/ecr/StructureDefinition/rr-external-resource-type-extension">
                            <valueCodeableConcept>
                                <coding>
                                    <system value="urn:oid:2.16.840.1.114222.4.5.274" />
                                    <code value="RRVS13" />
                                    <display value="Outbreak- or Cluster Related" />
                                </coding>
                            </valueCodeableConcept>
                        </extension>
                        <extension url="http://hl7.org/fhir/us/ecr/StructureDefinition/rr-priority-extension">
                            <valueCodeableConcept>
                                <coding>
                                    <system value="urn:oid:2.16.840.1.114222.4.5.274" />
                                    <code value="RRVS18" />
                                    <display value="Immediate action requested" />
                                </coding>
                            </valueCodeableConcept>
                        </extension>
                        <type value="documentation" />
                        <display
                            value="Local mosquito-borne Zika virus transmission was reported in your area. Increased watchfulness for symptoms of Zika virus in your patients is&#xA;                                  warranted."
                         />
                    </documentation>
                    <documentation>
                        <extension url="http://hl7.org/fhir/us/ecr/StructureDefinition/rr-external-resource-type-extension">
                            <valueCodeableConcept>
                                <coding>
                                    <system value="urn:oid:2.16.840.1.114222.4.5.274" />
                                    <code value="RRVS8" />
                                    <display value="Additional reporting needs" />
                                </coding>
                            </valueCodeableConcept>
                        </extension>
                        <extension url="http://hl7.org/fhir/us/ecr/StructureDefinition/rr-priority-extension">
                            <valueCodeableConcept>
                                <coding>
                                    <system value="urn:oid:2.16.840.1.114222.4.5.274" />
                                    <code value="RRVS17" />
                                    <display value="Immediate action required" />
                                </coding>
                            </valueCodeableConcept>
                        </extension>
                        <type value="documentation" />
                        <display
                            value="Additional information for the required reporting of Zika must be submitted to State Department of Health immediately. This additional information can be submitted&#xA;                                  here." />
                        <url value="http://statedepartmentofhealth.gov/epi/disease/zika/Supplemental_data_form.pdf" />
                    </documentation>
                    <documentation>
                        <extension url="http://hl7.org/fhir/us/ecr/StructureDefinition/rr-external-resource-type-extension">
                            <valueCodeableConcept>
                                <coding>
                                    <system value="urn:oid:2.16.840.1.114222.4.5.274" />
                                    <code value="RRVS10" />
                                    <display value="Treatment and/or prevention" />
                                </coding>
                            </valueCodeableConcept>
                        </extension>
                        <extension url="http://hl7.org/fhir/us/ecr/StructureDefinition/rr-priority-extension">
                            <valueCodeableConcept>
                                <coding>
                                    <system value="urn:oid:2.16.840.1.114222.4.5.274" />
                                    <code value="RRVS18" />
                                    <display value="Immediate action requested" />
                                </coding>
                            </valueCodeableConcept>
                        </extension>
                        <type value="documentation" />
                        <display value="Zika has particular risks for pregnant women. Follow-up guidance for pregnant women and couples who are planning pregnancy." />
                        <url value="http://statedepartmentofhealth.gov/epi/diseases/zika/Zika_Virus_Testing_Guidance.pdf" />
                    </documentation>
                    <documentation>
                        <extension url="http://hl7.org/fhir/us/ecr/StructureDefinition/rr-external-resource-type-extension">
                            <valueCodeableConcept>
                                <coding>
                                    <system value="urn:oid:2.16.840.1.114222.4.5.274" />
                                    <code value="RRVS9" />
                                    <display value="Additional detection and/or laboratory testing needs" />
                                </coding>
                            </valueCodeableConcept>
                        </extension>
                        <extension url="http://hl7.org/fhir/us/ecr/StructureDefinition/rr-priority-extension">
                            <valueCodeableConcept>
                                <coding>
                                    <system value="urn:oid:2.16.840.1.114222.4.5.274" />
                                    <code value="RRVS16" />
                                    <display value="Action requested" />
                                </coding>
                            </valueCodeableConcept>
                        </extension>
                        <type value="documentation" />
                        <display value="Further Laboratory testing for Zika may be needed. Guidance for additional testing and specimen collection" />
                        <url value="http://statedepartmentofhealth.gov/epi/diseases/zika/Zika_Virus_Testing_Guidance.pdf" />
                    </documentation>
                    <documentation>
                        <extension url="http://hl7.org/fhir/us/ecr/StructureDefinition/rr-external-resource-type-extension">
                            <valueCodeableConcept>
                                <coding>
                                    <system value="urn:oid:2.16.840.1.114222.4.5.274" />
                                    <code value="RRVS9" />
                                    <display value="Additional detection and/or laboratory testing needs" />
                                </coding>
                            </valueCodeableConcept>
                        </extension>
                        <extension url="http://hl7.org/fhir/us/ecr/StructureDefinition/rr-priority-extension">
                            <valueCodeableConcept>
                                <coding>
                                    <system value="urn:oid:2.16.840.1.114222.4.5.274" />
                                    <code value="RRVS15" />
                                    <display value="Information only" />
                                </coding>
                            </valueCodeableConcept>
                        </extension>
                        <type value="documentation" />
                        <display value="Forms for submitting further Zika laboratory testing" />
                        <url value="http://statedepartmentofhealth.gov/epi/diseases/zika/zika_test_request_form_UPHL.xlsx" />
                    </documentation>
                    <documentation>
                        <extension url="http://hl7.org/fhir/us/ecr/StructureDefinition/rr-external-resource-type-extension">
                            <valueCodeableConcept>
                                <coding>
                                    <system value="urn:oid:2.16.840.1.114222.4.5.274" />
                                    <code value="RRVS10" />
                                    <display value="Treatment and/or prevention" />
                                </coding>
                            </valueCodeableConcept>
                        </extension>
                        <extension url="http://hl7.org/fhir/us/ecr/StructureDefinition/rr-priority-extension">
                            <valueCodeableConcept>
                                <coding>
                                    <system value="urn:oid:2.16.840.1.114222.4.5.274" />
                                    <code value="RRVS15" />
                                    <display value="Information only" />
                                </coding>
                            </valueCodeableConcept>
                        </extension>
                        <type value="documentation" />
                        <display value="Treatment guidance" />
                        <url value="http://statedepartmentofhealth.gov/epi/diseases/zika/Zika_Virus_Testing_Guidance.pdf" />
                    </documentation>
                    <documentation>
                        <extension url="http://hl7.org/fhir/us/ecr/StructureDefinition/rr-external-resource-type-extension">
                            <valueCodeableConcept>
                                <coding>
                                    <system value="urn:oid:2.16.840.1.114222.4.5.274" />
                                    <code value="RRVS12" />
                                    <display value="PHA Contact Information" />
                                </coding>
                            </valueCodeableConcept>
                        </extension>
                        <extension url="http://hl7.org/fhir/us/ecr/StructureDefinition/rr-priority-extension">
                            <valueCodeableConcept>
                                <coding>
                                    <system value="urn:oid:2.16.840.1.114222.4.5.274" />
                                    <code value="RRVS15" />
                                    <display value="Information only" />
                                </coding>
                            </valueCodeableConcept>
                        </extension>
                        <type value="documentation" />
                        <display value="If you have additional questions regarding Zika or reporting, contact information for the State Department of Health is available here." />
                        <url value="http://statedepartmentofhealth.gov/epi/diseases/zika/Zika_Virus_Testing_Guidance.pdf" />
                    </documentation>
                    <documentation>
                        <extension url="http://hl7.org/fhir/us/ecr/StructureDefinition/rr-external-resource-type-extension">
                            <valueCodeableConcept>
                                <coding>
                                    <system value="urn:oid:2.16.840.1.114222.4.5.274" />
                                    <code value="RRVS10" />
                                    <display value="Treatment and/or prevention" />
                                </coding>
                            </valueCodeableConcept>
                        </extension>
                        <extension url="http://hl7.org/fhir/us/ecr/StructureDefinition/rr-priority-extension">
                            <valueCodeableConcept>
                                <coding>
                                    <system value="urn:oid:2.16.840.1.114222.4.5.274" />
                                    <code value="RRVS15" />
                                    <display value="Information only" />
                                </coding>
                            </valueCodeableConcept>
                        </extension>
                        <type value="documentation" />
                        <display value="Control and prevention information for providers" />
                        <url value="http://statedepartmentofhealth.gov/epi/diseases/zika/plan.pdf" />
                    </documentation>
                    <documentation>
                        <extension url="http://hl7.org/fhir/us/ecr/StructureDefinition/rr-external-resource-type-extension">
                            <valueCodeableConcept>
                                <coding>
                                    <system value="urn:oid:2.16.840.1.114222.4.5.274" />
                                    <code value="RRVS10" />
                                    <display value="Treatment and/or prevention" />
                                </coding>
                            </valueCodeableConcept>
                        </extension>
                        <extension url="http://hl7.org/fhir/us/ecr/StructureDefinition/rr-priority-extension">
                            <valueCodeableConcept>
                                <coding>
                                    <system value="urn:oid:2.16.840.1.114222.4.5.274" />
                                    <code value="RRVS15" />
                                    <display value="Information only" />
                                </coding>
                            </valueCodeableConcept>
                        </extension>
                        <type value="documentation" />
                        <display value="Detailed condition references" />
                        <url value="http://statedepartmentofhealth.gov/epi/diseases/zika/plan.pdf" />
                    </documentation>
                    <documentation>
                        <extension url="http://hl7.org/fhir/us/ecr/StructureDefinition/rr-external-resource-type-extension">
                            <valueCodeableConcept>
                                <coding>
                                    <system value="urn:oid:2.16.840.1.114222.4.5.274" />
                                    <code value="RRVS11" />
                                    <display value="Additional Resources" />
                                </coding>
                            </valueCodeableConcept>
                        </extension>
                        <extension url="http://hl7.org/fhir/us/ecr/StructureDefinition/rr-priority-extension">
                            <valueCodeableConcept>
                                <coding>
                                    <system value="urn:oid:2.16.840.1.114222.4.5.274" />
                                    <code value="RRVS15" />
                                    <display value="Information only" />
                                </coding>
                            </valueCodeableConcept>
                        </extension>
                        <type value="documentation" />
                        <display value="Prevalence in State" />
                        <url value="http://statedepartmentofhealth.gov/epi/diseases/zika/plan.pdf" />
                    </documentation>
                    <documentation>
                        <extension url="http://hl7.org/fhir/us/ecr/StructureDefinition/rr-external-resource-type-extension">
                            <valueCodeableConcept>
                                <coding>
                                    <system value="urn:oid:2.16.840.1.114222.4.5.274" />
                                    <code value="RRVS11" />
                                    <display value="Additional Resources" />
                                </coding>
                            </valueCodeableConcept>
                        </extension>
                        <extension url="http://hl7.org/fhir/us/ecr/StructureDefinition/rr-priority-extension">
                            <valueCodeableConcept>
                                <coding>
                                    <system value="urn:oid:2.16.840.1.114222.4.5.274" />
                                    <code value="RRVS15" />
                                    <display value="Information only" />
                                </coding>
                            </valueCodeableConcept>
                        </extension>
                        <type value="documentation" />
                        <display value="CDC webpage" />
                        <url value="https://www.cdc.gov/zika/index.html" />
                    </documentation>
                    <documentation>
                        <extension url="http://hl7.org/fhir/us/ecr/StructureDefinition/rr-external-resource-type-extension">
                            <valueCodeableConcept>
                                <coding>
                                    <system value="urn:oid:2.16.840.1.114222.4.5.274" />
                                    <code value="RRVS11" />
                                    <display value="Additional Resources" />
                                </coding>
                            </valueCodeableConcept>
                        </extension>
                        <extension url="http://hl7.org/fhir/us/ecr/StructureDefinition/rr-priority-extension">
                            <valueCodeableConcept>
                                <coding>
                                    <system value="urn:oid:2.16.840.1.114222.4.5.274" />
                                    <code value="RRVS15" />
                                    <display value="Information only" />
                                </coding>
                            </valueCodeableConcept>
                        </extension>
                        <type value="documentation" />
                        <display value="Patient information factsheet" />
                        <url value="http://statedepartmentofhealth.gov/epi/diseases/zika/factsheet.pdf" />
                    </documentation>
                    <documentation>
                        <extension url="http://hl7.org/fhir/us/ecr/StructureDefinition/rr-external-resource-type-extension">
                            <valueCodeableConcept>
                                <coding>
                                    <system value="urn:oid:2.16.840.1.114222.4.5.274" />
                                    <code value="RRVS11" />
                                    <display value="Additional Resources" />
                                </coding>
                            </valueCodeableConcept>
                        </extension>
                        <extension url="http://hl7.org/fhir/us/ecr/StructureDefinition/rr-priority-extension">
                            <valueCodeableConcept>
                                <coding>
                                    <system value="urn:oid:2.16.840.1.114222.4.5.274" />
                                    <code value="RRVS15" />
                                    <display value="Information only" />
                                </coding>
                            </valueCodeableConcept>
                        </extension>
                        <type value="documentation" />
                        <display value="State Resident information" />
                        <url value="http://statedepartmentofhealth.gov/epi/diseases/zika/ZikaVirus_QA_StateDOH.pdf" />
                    </documentation>
                    <timingDuration>
                        <value value="24" />
                        <unit value="h" />
                    </timingDuration>
                </action>
            </PlanDefinition>
        </resource>
    </entry>
    <entry>
        <fullUrl value="urn:uuid:1048f1b7-eba8-47ec-a7ff-2fba3f14c86c" />
        <resource>
            <Organization>
                <meta>
                    <profile value="http://hl7.org/fhir/us/ecr/StructureDefinition/rr-responsible-agency-organization" />
                </meta>
                <!--participant[LOC]-->
                <identifier>
                    <system value="http://hl7.org/fhir/sid/us-npi" />
                    <value value="12341234" />
                </identifier>
                <active value="true" />
                <type>
                    <coding>
                        <system value="urn:oid:2.16.840.1.114222.4.5.232" />
                        <code value="RR8" />
                        <display value="Responsible Agency" />
                    </coding>
                </type>
                <name value="State Department of Health" />
                <telecom>
                    <system value="phone" />
                    <value value="+1-555-555-3555" />
                    <use value="work" />
                </telecom>
                <telecom>
                    <system value="fax" />
                    <value value="+1-955-555-3555" />
                    <use value="work" />
                </telecom>
                <telecom>
                    <system value="email" />
                    <value value="mail@healthauthoritywest.gov" />
                    <use value="work" />
                </telecom>
                <telecom>
                    <system value="url" />
                    <value value="https://www.healthauthoritywest.gov" />
                    <use value="work" />
                </telecom>
                <address>
                    <use value="work" />
                    <line value="1111 Health Authority Drive" />
                    <state value="State" />
                    <postalCode value="99999" />
                </address>
            </Organization>
        </resource>
    </entry>
    <entry>
        <fullUrl value="urn:uuid:c703bf12-8c45-471b-983f-7142b5a442d5" />
        <resource>
            <Organization>
                <meta>
                    <profile value="http://hl7.org/fhir/us/ecr/StructureDefinition/rr-rules-authoring-agency-organization" />
                </meta>
                <!--participant[LOC]-->
                <identifier>
                    <system value="http://hl7.org/fhir/sid/us-npi" />
                    <value value="12341234" />
                </identifier>
                <active value="true" />
                <type>
                    <coding>
                        <system value="urn:oid:2.16.840.1.114222.4.5.232" />
                        <code value="RR12" />
                        <display value="Rules Authoring Agency" />
                    </coding>
                </type>
                <name value="State Department of Health" />
                <telecom>
                    <system value="phone" />
                    <value value="+1-555-555-3555" />
                    <use value="work" />
                </telecom>
                <telecom>
                    <system value="fax" />
                    <value value="+1-955-555-3555" />
                    <use value="work" />
                </telecom>
                <telecom>
                    <system value="email" />
                    <value value="mail@healthauthoritywest.gov" />
                    <use value="work" />
                </telecom>
                <telecom>
                    <system value="url" />
                    <value value="https://www.healthauthoritywest.gov" />
                    <use value="work" />
                </telecom>
                <address>
                    <use value="work" />
                    <line value="2222 Health Authority Drive" />
                    <city value="City" />
                    <state value="State" />
                    <postalCode value="99999" />
                </address>
            </Organization>
        </resource>
    </entry>
    <entry>
        <fullUrl value="urn:uuid:72a2f366-9aee-4b41-bc03-0588383a0d1c" />
        <resource>
            <Organization>
                <meta>
                    <profile value="http://hl7.org/fhir/us/ecr/StructureDefinition/rr-routing-entity-organization" />
                </meta>
                <!--participant[LOC]-->
                <identifier>
                    <system value="http://hl7.org/fhir/sid/us-npi" />
                    <value value="43214321" />
                </identifier>
                <active value="true" />
                <type>
                    <coding>
                        <system value="urn:oid:2.16.840.1.114222.4.5.232" />
                        <code value="RR7" />
                        <display value="Routing Entity" />
                    </coding>
                </type>
                <name value="State Department of Health Routing Agency" />
                <telecom>
                    <system value="phone" />
                    <value value="+1-555-555-3555" />
                    <use value="work" />
                </telecom>
                <telecom>
                    <system value="fax" />
                    <value value="+1-955-555-3555" />
                    <use value="work" />
                </telecom>
                <telecom>
                    <system value="email" />
                    <value value="mail@healthauthoritywest.gov" />
                    <use value="work" />
                </telecom>
                <telecom>
                    <system value="url" />
                    <value value="https://www.healthauthoritywest.gov" />
                    <use value="work" />
                </telecom>
                <address>
                    <use value="work" />
                    <line value="3333 Health Authority Drive" />
                    <city value="City" />
                    <state value="State" />
                    <postalCode value="99999" />
                </address>
            </Organization>
        </resource>
    </entry>
</Bundle>
